run_id,condition,success,timeout,failed_images,failed_audio,failed_video,trial_type,trial_index,time_elapsed,internal_node_id,ID,rt,stimulus,response,trial_category,stimulus_name,recorded_at,ip,user_agent,device,browser,browser_version,platform,platform_version,source_code_version
12,1,true,false,[],[],[],preload,0,4379,0.0-0.0,wjdcdyfua,"""","""","""","""","""","2022-01-23 08:11:36",68.109.61.30,"Mozilla/5.0 (Windows NT 10.0; Win64; x64) AppleWebKit/537.36 (KHTML, like Gecko) Chrome/97.0.4692.71 Safari/537.36",WebKit,Chrome,97.0.4692.71,Windows,10.0,e51aad313ae019d9205a5db3bc498b86
12,1,"""","""","""","""","""",html-keyboard-response,1,25779,0.0-1.0,wjdcdyfua,21393,"<p style=""text-align:center;width:700px;""> Welcome to the experiment! This study takes most people around 20 minutes to complete. Please complete it in one sitting.</p>"," ","""","""","2022-01-23 08:11:36",68.109.61.30,"Mozilla/5.0 (Windows NT 10.0; Win64; x64) AppleWebKit/537.36 (KHTML, like Gecko) Chrome/97.0.4692.71 Safari/537.36",WebKit,Chrome,97.0.4692.71,Windows,10.0,e51aad313ae019d9205a5db3bc498b86
12,1,"""","""","""","""","""",html-keyboard-response,2,50449,0.0-2.0,wjdcdyfua,24653,"<p style = ""font-size:16px;"">MIT Computational Cognitive Science Lab</p><h4>Press the 'y' key to consent.</h4><div style = ""background-color:#f2f2f2;""><h3>Informed Consent Form</h3><div style=""text-align:left;width:700px;""><p style = ""font-size:16px;"">In this HIT, you will be asked to read a set of instructions that describe a particular scenario, and you will then be asked to perform a simple task relating to that scenario. There will also be comprehension and attention checks. Participants who do not answer these checks correctly cannot be approved. In order to get credit for this HIT, you must read all the questions fully and answer honestly. You may only complete this HIT once. If you complete this HIT multiple times, you will be rejected.</p><p style = ""font-size:16px;"">This HIT is part of a MIT scientific research project. Your decision to complete this HIT is voluntary. There is no way for us to identify you. The only information we will have, in addition to your responses, is the time at which you completed the survey. The results of the research may be presented at scientific meetings or published in scientific journals. Pressing the ""Y"" key indicates that you are at least 18 years of age, and agree to complete this HIT voluntarily. Press the ""Y"" key to confirm your agreement and continue.</p></div>",y,"""","""","2022-01-23 08:11:36",68.109.61.30,"Mozilla/5.0 (Windows NT 10.0; Win64; x64) AppleWebKit/537.36 (KHTML, like Gecko) Chrome/97.0.4692.71 Safari/537.36",WebKit,Chrome,97.0.4692.71,Windows,10.0,e51aad313ae019d9205a5db3bc498b86
12,1,"""","""","""","""","""",survey-text,3,163387,0.0-3.0,wjdcdyfua,112916,"""","{""instructions1"":""collect water""}",instructions,"""","2022-01-23 08:11:36",68.109.61.30,"Mozilla/5.0 (Windows NT 10.0; Win64; x64) AppleWebKit/537.36 (KHTML, like Gecko) Chrome/97.0.4692.71 Safari/537.36",WebKit,Chrome,97.0.4692.71,Windows,10.0,e51aad313ae019d9205a5db3bc498b86
12,1,"""","""","""","""","""",survey-text,4,304347,0.0-4.0,wjdcdyfua,140933,"""","{""instructions2"":""when all 8 people collect water and store it in a wooden bucket.""}",instructions,"""","2022-01-23 08:11:36",68.109.61.30,"Mozilla/5.0 (Windows NT 10.0; Win64; x64) AppleWebKit/537.36 (KHTML, like Gecko) Chrome/97.0.4692.71 Safari/537.36",WebKit,Chrome,97.0.4692.71,Windows,10.0,e51aad313ae019d9205a5db3bc498b86
12,1,"""","""","""","""","""",survey-text,5,426171,0.0-5.0,wjdcdyfua,121814,"""","{""instructions3"":""8""}",instructions,"""","2022-01-23 08:11:36",68.109.61.30,"Mozilla/5.0 (Windows NT 10.0; Win64; x64) AppleWebKit/537.36 (KHTML, like Gecko) Chrome/97.0.4692.71 Safari/537.36",WebKit,Chrome,97.0.4692.71,Windows,10.0,e51aad313ae019d9205a5db3bc498b86
12,1,"""","""","""","""","""",survey-text,6,622729,0.0-6.0,wjdcdyfua,196545,"""","{""Q0"":""morally acceptable I did not see anything unacceptable""}",explanation,video/yes_line_10_1cut.mp4,"2022-01-23 08:11:36",68.109.61.30,"Mozilla/5.0 (Windows NT 10.0; Win64; x64) AppleWebKit/537.36 (KHTML, like Gecko) Chrome/97.0.4692.71 Safari/537.36",WebKit,Chrome,97.0.4692.71,Windows,10.0,e51aad313ae019d9205a5db3bc498b86
12,1,"""","""","""","""","""",video-button-response,7,671842,0.0-7.0,wjdcdyfua,49101,"[""video/yes_line_9_3cut.mp4""]",1,yes_34,video/yes_line_9_3cut.mp4,"2022-01-23 08:11:36",68.109.61.30,"Mozilla/5.0 (Windows NT 10.0; Win64; x64) AppleWebKit/537.36 (KHTML, like Gecko) Chrome/97.0.4692.71 Safari/537.36",WebKit,Chrome,97.0.4692.71,Windows,10.0,e51aad313ae019d9205a5db3bc498b86
12,1,"""","""","""","""","""",video-button-response,8,732369,0.0-8.0,wjdcdyfua,60524,"[""video/no_line_1_3cut.mp4""]",1,no_34,video/no_line_1_3cut.mp4,"2022-01-23 08:11:36",68.109.61.30,"Mozilla/5.0 (Windows NT 10.0; Win64; x64) AppleWebKit/537.36 (KHTML, like Gecko) Chrome/97.0.4692.71 Safari/537.36",WebKit,Chrome,97.0.4692.71,Windows,10.0,e51aad313ae019d9205a5db3bc498b86
12,1,"""","""","""","""","""",video-button-response,9,774329,0.0-9.0,wjdcdyfua,41952,"[""video/no_line_2_4cut.mp4""]",1,no_34,video/no_line_2_4cut.mp4,"2022-01-23 08:11:36",68.109.61.30,"Mozilla/5.0 (Windows NT 10.0; Win64; x64) AppleWebKit/537.36 (KHTML, like Gecko) Chrome/97.0.4692.71 Safari/537.36",WebKit,Chrome,97.0.4692.71,Windows,10.0,e51aad313ae019d9205a5db3bc498b86
12,1,"""","""","""","""","""",survey-text,10,905529,0.0-10.0,wjdcdyfua,131191,"""","{""Q0"":""morally acceptable all was done properly ""}",explanation,video/yes_line_8_8cut.mp4,"2022-01-23 08:11:36",68.109.61.30,"Mozilla/5.0 (Windows NT 10.0; Win64; x64) AppleWebKit/537.36 (KHTML, like Gecko) Chrome/97.0.4692.71 Safari/537.36",WebKit,Chrome,97.0.4692.71,Windows,10.0,e51aad313ae019d9205a5db3bc498b86
12,1,"""","""","""","""","""",video-button-response,11,976152,0.0-11.0,wjdcdyfua,70615,"[""video/yes_line_10_3cut.mp4""]",0,yes_34,video/yes_line_10_3cut.mp4,"2022-01-23 08:11:36",68.109.61.30,"Mozilla/5.0 (Windows NT 10.0; Win64; x64) AppleWebKit/537.36 (KHTML, like Gecko) Chrome/97.0.4692.71 Safari/537.36",WebKit,Chrome,97.0.4692.71,Windows,10.0,e51aad313ae019d9205a5db3bc498b86
12,1,"""","""","""","""","""",video-button-response,12,1003105,0.0-12.0,wjdcdyfua,26948,"[""video/no_line_1_8cut.mp4""]",1,no_8,video/no_line_1_8cut.mp4,"2022-01-23 08:11:36",68.109.61.30,"Mozilla/5.0 (Windows NT 10.0; Win64; x64) AppleWebKit/537.36 (KHTML, like Gecko) Chrome/97.0.4692.71 Safari/537.36",WebKit,Chrome,97.0.4692.71,Windows,10.0,e51aad313ae019d9205a5db3bc498b86
12,1,"""","""","""","""","""",video-button-response,13,1085193,0.0-13.0,wjdcdyfua,82081,"[""video/yes_line_8_1cut.mp4""]",1,yes_1,video/yes_line_8_1cut.mp4,"2022-01-23 08:11:36",68.109.61.30,"Mozilla/5.0 (Windows NT 10.0; Win64; x64) AppleWebKit/537.36 (KHTML, like Gecko) Chrome/97.0.4692.71 Safari/537.36",WebKit,Chrome,97.0.4692.71,Windows,10.0,e51aad313ae019d9205a5db3bc498b86
12,1,"""","""","""","""","""",survey-text,14,1139258,0.0-14.0,wjdcdyfua,54054,"""","{""Q0"":""acceptable playing""}",explanation,video/no_line_3_3cut.mp4,"2022-01-23 08:11:36",68.109.61.30,"Mozilla/5.0 (Windows NT 10.0; Win64; x64) AppleWebKit/537.36 (KHTML, like Gecko) Chrome/97.0.4692.71 Safari/537.36",WebKit,Chrome,97.0.4692.71,Windows,10.0,e51aad313ae019d9205a5db3bc498b86
12,1,"""","""","""","""","""",video-button-response,15,1205185,0.0-15.0,wjdcdyfua,65923,"[""video/no_line_1_1cut.mp4""]",1,no_1,video/no_line_1_1cut.mp4,"2022-01-23 08:11:36",68.109.61.30,"Mozilla/5.0 (Windows NT 10.0; Win64; x64) AppleWebKit/537.36 (KHTML, like Gecko) Chrome/97.0.4692.71 Safari/537.36",WebKit,Chrome,97.0.4692.71,Windows,10.0,e51aad313ae019d9205a5db3bc498b86
12,1,"""","""","""","""","""",video-button-response,16,1269817,0.0-16.0,wjdcdyfua,64628,"[""video/no_line_2_8cut.mp4""]",1,no_8,video/no_line_2_8cut.mp4,"2022-01-23 08:11:36",68.109.61.30,"Mozilla/5.0 (Windows NT 10.0; Win64; x64) AppleWebKit/537.36 (KHTML, like Gecko) Chrome/97.0.4692.71 Safari/537.36",WebKit,Chrome,97.0.4692.71,Windows,10.0,e51aad313ae019d9205a5db3bc498b86
12,1,"""","""","""","""","""",video-button-response,17,1302801,0.0-17.0,wjdcdyfua,32974,"[""video/no_line_3_1cut.mp4""]",1,no_1,video/no_line_3_1cut.mp4,"2022-01-23 08:11:36",68.109.61.30,"Mozilla/5.0 (Windows NT 10.0; Win64; x64) AppleWebKit/537.36 (KHTML, like Gecko) Chrome/97.0.4692.71 Safari/537.36",WebKit,Chrome,97.0.4692.71,Windows,10.0,e51aad313ae019d9205a5db3bc498b86
12,1,"""","""","""","""","""",survey-text,18,1387306,0.0-18.0,wjdcdyfua,84494,"""","{""Q0"":""morally unacceptable cut in line""}",explanation,video/yes_line_9_8cut.mp4,"2022-01-23 08:11:36",68.109.61.30,"Mozilla/5.0 (Windows NT 10.0; Win64; x64) AppleWebKit/537.36 (KHTML, like Gecko) Chrome/97.0.4692.71 Safari/537.36",WebKit,Chrome,97.0.4692.71,Windows,10.0,e51aad313ae019d9205a5db3bc498b86
12,1,"""","""","""","""","""",video-button-response,19,1435257,0.0-19.0,wjdcdyfua,47945,"[""video/yes_line_7_8cut.mp4""]",1,yes_8,video/yes_line_7_8cut.mp4,"2022-01-23 08:11:36",68.109.61.30,"Mozilla/5.0 (Windows NT 10.0; Win64; x64) AppleWebKit/537.36 (KHTML, like Gecko) Chrome/97.0.4692.71 Safari/537.36",WebKit,Chrome,97.0.4692.71,Windows,10.0,e51aad313ae019d9205a5db3bc498b86
12,1,"""","""","""","""","""",video-button-response,20,1465016,0.0-20.0,wjdcdyfua,29755,"[""video/no_line_3_8cut.mp4""]",1,no_8,video/no_line_3_8cut.mp4,"2022-01-23 08:11:36",68.109.61.30,"Mozilla/5.0 (Windows NT 10.0; Win64; x64) AppleWebKit/537.36 (KHTML, like Gecko) Chrome/97.0.4692.71 Safari/537.36",WebKit,Chrome,97.0.4692.71,Windows,10.0,e51aad313ae019d9205a5db3bc498b86
12,1,"""","""","""","""","""",video-button-response,21,1527128,0.0-21.0,wjdcdyfua,62105,"[""video/yes_line_8_3cut.mp4""]",1,yes_34,video/yes_line_8_3cut.mp4,"2022-01-23 08:11:36",68.109.61.30,"Mozilla/5.0 (Windows NT 10.0; Win64; x64) AppleWebKit/537.36 (KHTML, like Gecko) Chrome/97.0.4692.71 Safari/537.36",WebKit,Chrome,97.0.4692.71,Windows,10.0,e51aad313ae019d9205a5db3bc498b86
12,1,"""","""","""","""","""",survey-text,22,1800386,0.0-22.0,wjdcdyfua,273250,"""","{""Q0"":""acceptable no issues""}",explanation,video/yes_line_7_1cut.mp4,"2022-01-23 08:11:36",68.109.61.30,"Mozilla/5.0 (Windows NT 10.0; Win64; x64) AppleWebKit/537.36 (KHTML, like Gecko) Chrome/97.0.4692.71 Safari/537.36",WebKit,Chrome,97.0.4692.71,Windows,10.0,e51aad313ae019d9205a5db3bc498b86
12,1,"""","""","""","""","""",video-button-response,23,1836543,0.0-23.0,wjdcdyfua,36149,"[""video/yes_line_7_4cut.mp4""]",0,yes_34,video/yes_line_7_4cut.mp4,"2022-01-23 08:11:36",68.109.61.30,"Mozilla/5.0 (Windows NT 10.0; Win64; x64) AppleWebKit/537.36 (KHTML, like Gecko) Chrome/97.0.4692.71 Safari/537.36",WebKit,Chrome,97.0.4692.71,Windows,10.0,e51aad313ae019d9205a5db3bc498b86
12,1,"""","""","""","""","""",video-button-response,24,1921573,0.0-24.0,wjdcdyfua,85028,"[""video/yes_line_10_8cut.mp4""]",1,yes_8,video/yes_line_10_8cut.mp4,"2022-01-23 08:11:36",68.109.61.30,"Mozilla/5.0 (Windows NT 10.0; Win64; x64) AppleWebKit/537.36 (KHTML, like Gecko) Chrome/97.0.4692.71 Safari/537.36",WebKit,Chrome,97.0.4692.71,Windows,10.0,e51aad313ae019d9205a5db3bc498b86
12,1,"""","""","""","""","""",video-button-response,25,1948573,0.0-25.0,wjdcdyfua,26992,"[""video/no_line_2_1cut.mp4""]",0,no_1,video/no_line_2_1cut.mp4,"2022-01-23 08:11:36",68.109.61.30,"Mozilla/5.0 (Windows NT 10.0; Win64; x64) AppleWebKit/537.36 (KHTML, like Gecko) Chrome/97.0.4692.71 Safari/537.36",WebKit,Chrome,97.0.4692.71,Windows,10.0,e51aad313ae019d9205a5db3bc498b86
12,1,"""","""","""","""","""",survey-text,26,1996609,0.0-26.0,wjdcdyfua,48026,"""","{""Q0"":""cut in line morally unacceptable ""}",explanation,video/yes_line_9_1cut.mp4,"2022-01-23 08:11:36",68.109.61.30,"Mozilla/5.0 (Windows NT 10.0; Win64; x64) AppleWebKit/537.36 (KHTML, like Gecko) Chrome/97.0.4692.71 Safari/537.36",WebKit,Chrome,97.0.4692.71,Windows,10.0,e51aad313ae019d9205a5db3bc498b86
12,1,"""","""","""","""","""",survey-html-form,27,2067382,0.0-27.0,wjdcdyfua,70767,"""","[{""name"":""understand"",""value"":""yes""},{""name"":""problems"",""value"":""no""},{""name"":""age"",""value"":""59""},{""name"":""gender"",""value"":""female""},{""name"":""comments"",""value"":""Thank you for the interesting study""}]",debrief,"""","2022-01-23 08:11:36",68.109.61.30,"Mozilla/5.0 (Windows NT 10.0; Win64; x64) AppleWebKit/537.36 (KHTML, like Gecko) Chrome/97.0.4692.71 Safari/537.36",WebKit,Chrome,97.0.4692.71,Windows,10.0,e51aad313ae019d9205a5db3bc498b86
12,1,"""","""","""","""","""",html-keyboard-response,28,2087632,0.0-28.0,wjdcdyfua,20247,"<div style=""font-size:20px;"">This task is now over. The completion code is: wjdcdyfua Press space after you have the completion code to finish. Thank you for your participation! </div>"," ","""","""","2022-01-23 08:11:36",68.109.61.30,"Mozilla/5.0 (Windows NT 10.0; Win64; x64) AppleWebKit/537.36 (KHTML, like Gecko) Chrome/97.0.4692.71 Safari/537.36",WebKit,Chrome,97.0.4692.71,Windows,10.0,e51aad313ae019d9205a5db3bc498b86
