run_id,condition,success,timeout,failed_images,failed_audio,failed_video,trial_type,trial_index,time_elapsed,internal_node_id,ID,rt,stimulus,response,trial_category,stimulus_name,recorded_at,ip,user_agent,device,browser,browser_version,platform,platform_version,source_code_version
16,1,true,false,[],[],[],preload,0,21307,0.0-0.0,bwd19ywzf,"""","""","""","""","""","2022-01-23 08:39:13",66.189.167.229,"Mozilla/5.0 (Windows NT 10.0; Win64; x64) AppleWebKit/537.36 (KHTML, like Gecko) Chrome/97.0.4692.71 Safari/537.36",WebKit,Chrome,97.0.4692.71,Windows,10.0,e51aad313ae019d9205a5db3bc498b86
16,1,"""","""","""","""","""",html-keyboard-response,1,23362,0.0-1.0,bwd19ywzf,2050,"<p style=""text-align:center;width:700px;""> Welcome to the experiment! This study takes most people around 20 minutes to complete. Please complete it in one sitting.</p>"," ","""","""","2022-01-23 08:39:13",66.189.167.229,"Mozilla/5.0 (Windows NT 10.0; Win64; x64) AppleWebKit/537.36 (KHTML, like Gecko) Chrome/97.0.4692.71 Safari/537.36",WebKit,Chrome,97.0.4692.71,Windows,10.0,e51aad313ae019d9205a5db3bc498b86
16,1,"""","""","""","""","""",html-keyboard-response,2,26540,0.0-2.0,bwd19ywzf,3177,"<p style = ""font-size:16px;"">MIT Computational Cognitive Science Lab</p><h4>Press the 'y' key to consent.</h4><div style = ""background-color:#f2f2f2;""><h3>Informed Consent Form</h3><div style=""text-align:left;width:700px;""><p style = ""font-size:16px;"">In this HIT, you will be asked to read a set of instructions that describe a particular scenario, and you will then be asked to perform a simple task relating to that scenario. There will also be comprehension and attention checks. Participants who do not answer these checks correctly cannot be approved. In order to get credit for this HIT, you must read all the questions fully and answer honestly. You may only complete this HIT once. If you complete this HIT multiple times, you will be rejected.</p><p style = ""font-size:16px;"">This HIT is part of a MIT scientific research project. Your decision to complete this HIT is voluntary. There is no way for us to identify you. The only information we will have, in addition to your responses, is the time at which you completed the survey. The results of the research may be presented at scientific meetings or published in scientific journals. Pressing the ""Y"" key indicates that you are at least 18 years of age, and agree to complete this HIT voluntarily. Press the ""Y"" key to confirm your agreement and continue.</p></div>",y,"""","""","2022-01-23 08:39:13",66.189.167.229,"Mozilla/5.0 (Windows NT 10.0; Win64; x64) AppleWebKit/537.36 (KHTML, like Gecko) Chrome/97.0.4692.71 Safari/537.36",WebKit,Chrome,97.0.4692.71,Windows,10.0,e51aad313ae019d9205a5db3bc498b86
16,1,"""","""","""","""","""",survey-text,3,95401,0.0-3.0,bwd19ywzf,68836,"""","{""instructions1"":""Collect water from a water source and bring it back to the wooden storage buckets""}",instructions,"""","2022-01-23 08:39:13",66.189.167.229,"Mozilla/5.0 (Windows NT 10.0; Win64; x64) AppleWebKit/537.36 (KHTML, like Gecko) Chrome/97.0.4692.71 Safari/537.36",WebKit,Chrome,97.0.4692.71,Windows,10.0,e51aad313ae019d9205a5db3bc498b86
16,1,"""","""","""","""","""",survey-text,4,159275,0.0-4.0,bwd19ywzf,63868,"""","{""instructions2"":""when all 8 people collect water and store it in a wooden storage bucket.""}",instructions,"""","2022-01-23 08:39:13",66.189.167.229,"Mozilla/5.0 (Windows NT 10.0; Win64; x64) AppleWebKit/537.36 (KHTML, like Gecko) Chrome/97.0.4692.71 Safari/537.36",WebKit,Chrome,97.0.4692.71,Windows,10.0,e51aad313ae019d9205a5db3bc498b86
16,1,"""","""","""","""","""",survey-text,5,194265,0.0-5.0,bwd19ywzf,34981,"""","{""instructions3"":""one""}",instructions,"""","2022-01-23 08:39:13",66.189.167.229,"Mozilla/5.0 (Windows NT 10.0; Win64; x64) AppleWebKit/537.36 (KHTML, like Gecko) Chrome/97.0.4692.71 Safari/537.36",WebKit,Chrome,97.0.4692.71,Windows,10.0,e51aad313ae019d9205a5db3bc498b86
16,1,"""","""","""","""","""",survey-text,6,281145,0.0-6.0,bwd19ywzf,86866,"""","{""Q0"":""morally unacceptable because they jumped the queue.""}",explanation,video/yes_line_10_1cut.mp4,"2022-01-23 08:39:13",66.189.167.229,"Mozilla/5.0 (Windows NT 10.0; Win64; x64) AppleWebKit/537.36 (KHTML, like Gecko) Chrome/97.0.4692.71 Safari/537.36",WebKit,Chrome,97.0.4692.71,Windows,10.0,e51aad313ae019d9205a5db3bc498b86
16,1,"""","""","""","""","""",video-button-response,7,309413,0.0-7.0,bwd19ywzf,28269,"[""video/no_line_1_1cut.mp4""]",1,no_1,video/no_line_1_1cut.mp4,"2022-01-23 08:39:13",66.189.167.229,"Mozilla/5.0 (Windows NT 10.0; Win64; x64) AppleWebKit/537.36 (KHTML, like Gecko) Chrome/97.0.4692.71 Safari/537.36",WebKit,Chrome,97.0.4692.71,Windows,10.0,e51aad313ae019d9205a5db3bc498b86
16,1,"""","""","""","""","""",video-button-response,8,408769,0.0-8.0,bwd19ywzf,99345,"[""video/yes_line_10_3cut.mp4""]",1,yes_34,video/yes_line_10_3cut.mp4,"2022-01-23 08:39:13",66.189.167.229,"Mozilla/5.0 (Windows NT 10.0; Win64; x64) AppleWebKit/537.36 (KHTML, like Gecko) Chrome/97.0.4692.71 Safari/537.36",WebKit,Chrome,97.0.4692.71,Windows,10.0,e51aad313ae019d9205a5db3bc498b86
16,1,"""","""","""","""","""",video-button-response,9,454624,0.0-9.0,bwd19ywzf,45853,"[""video/yes_line_7_1cut.mp4""]",1,yes_1,video/yes_line_7_1cut.mp4,"2022-01-23 08:39:13",66.189.167.229,"Mozilla/5.0 (Windows NT 10.0; Win64; x64) AppleWebKit/537.36 (KHTML, like Gecko) Chrome/97.0.4692.71 Safari/537.36",WebKit,Chrome,97.0.4692.71,Windows,10.0,e51aad313ae019d9205a5db3bc498b86
16,1,"""","""","""","""","""",survey-text,10,500625,0.0-10.0,bwd19ywzf,45992,"""","{""Q0"":""morally unacceptable because they didn't follow the queue.""}",explanation,video/no_line_1_3cut.mp4,"2022-01-23 08:39:13",66.189.167.229,"Mozilla/5.0 (Windows NT 10.0; Win64; x64) AppleWebKit/537.36 (KHTML, like Gecko) Chrome/97.0.4692.71 Safari/537.36",WebKit,Chrome,97.0.4692.71,Windows,10.0,e51aad313ae019d9205a5db3bc498b86
16,1,"""","""","""","""","""",video-button-response,11,539713,0.0-11.0,bwd19ywzf,39084,"[""video/yes_line_9_1cut.mp4""]",1,yes_1,video/yes_line_9_1cut.mp4,"2022-01-23 08:39:13",66.189.167.229,"Mozilla/5.0 (Windows NT 10.0; Win64; x64) AppleWebKit/537.36 (KHTML, like Gecko) Chrome/97.0.4692.71 Safari/537.36",WebKit,Chrome,97.0.4692.71,Windows,10.0,e51aad313ae019d9205a5db3bc498b86
16,1,"""","""","""","""","""",video-button-response,12,566968,0.0-12.0,bwd19ywzf,27250,"[""video/no_line_3_3cut.mp4""]",0,no_34,video/no_line_3_3cut.mp4,"2022-01-23 08:39:13",66.189.167.229,"Mozilla/5.0 (Windows NT 10.0; Win64; x64) AppleWebKit/537.36 (KHTML, like Gecko) Chrome/97.0.4692.71 Safari/537.36",WebKit,Chrome,97.0.4692.71,Windows,10.0,e51aad313ae019d9205a5db3bc498b86
16,1,"""","""","""","""","""",video-button-response,13,596516,0.0-13.0,bwd19ywzf,29549,"[""video/no_line_3_8cut.mp4""]",0,no_8,video/no_line_3_8cut.mp4,"2022-01-23 08:39:13",66.189.167.229,"Mozilla/5.0 (Windows NT 10.0; Win64; x64) AppleWebKit/537.36 (KHTML, like Gecko) Chrome/97.0.4692.71 Safari/537.36",WebKit,Chrome,97.0.4692.71,Windows,10.0,e51aad313ae019d9205a5db3bc498b86
16,1,"""","""","""","""","""",survey-text,14,672973,0.0-14.0,bwd19ywzf,76449,"""","{""Q0"":""morally unacceptable because they cut corners""}",explanation,video/yes_line_10_8cut.mp4,"2022-01-23 08:39:13",66.189.167.229,"Mozilla/5.0 (Windows NT 10.0; Win64; x64) AppleWebKit/537.36 (KHTML, like Gecko) Chrome/97.0.4692.71 Safari/537.36",WebKit,Chrome,97.0.4692.71,Windows,10.0,e51aad313ae019d9205a5db3bc498b86
16,1,"""","""","""","""","""",video-button-response,15,700757,0.0-15.0,bwd19ywzf,27780,"[""video/no_line_1_8cut.mp4""]",0,no_8,video/no_line_1_8cut.mp4,"2022-01-23 08:39:13",66.189.167.229,"Mozilla/5.0 (Windows NT 10.0; Win64; x64) AppleWebKit/537.36 (KHTML, like Gecko) Chrome/97.0.4692.71 Safari/537.36",WebKit,Chrome,97.0.4692.71,Windows,10.0,e51aad313ae019d9205a5db3bc498b86
16,1,"""","""","""","""","""",video-button-response,16,766651,0.0-16.0,bwd19ywzf,65889,"[""video/yes_line_8_3cut.mp4""]",1,yes_34,video/yes_line_8_3cut.mp4,"2022-01-23 08:39:13",66.189.167.229,"Mozilla/5.0 (Windows NT 10.0; Win64; x64) AppleWebKit/537.36 (KHTML, like Gecko) Chrome/97.0.4692.71 Safari/537.36",WebKit,Chrome,97.0.4692.71,Windows,10.0,e51aad313ae019d9205a5db3bc498b86
16,1,"""","""","""","""","""",video-button-response,17,810243,0.0-17.0,bwd19ywzf,43587,"[""video/yes_line_9_3cut.mp4""]",1,yes_34,video/yes_line_9_3cut.mp4,"2022-01-23 08:39:13",66.189.167.229,"Mozilla/5.0 (Windows NT 10.0; Win64; x64) AppleWebKit/537.36 (KHTML, like Gecko) Chrome/97.0.4692.71 Safari/537.36",WebKit,Chrome,97.0.4692.71,Windows,10.0,e51aad313ae019d9205a5db3bc498b86
16,1,"""","""","""","""","""",survey-text,18,866873,0.0-18.0,bwd19ywzf,56617,"""","{""Q0"":""morally acceptable because there are a lot of wells to get water from and he chose the closest one.""}",explanation,video/no_line_2_8cut.mp4,"2022-01-23 08:39:13",66.189.167.229,"Mozilla/5.0 (Windows NT 10.0; Win64; x64) AppleWebKit/537.36 (KHTML, like Gecko) Chrome/97.0.4692.71 Safari/537.36",WebKit,Chrome,97.0.4692.71,Windows,10.0,e51aad313ae019d9205a5db3bc498b86
16,1,"""","""","""","""","""",video-button-response,19,907809,0.0-19.0,bwd19ywzf,40930,"[""video/yes_line_7_8cut.mp4""]",0,yes_8,video/yes_line_7_8cut.mp4,"2022-01-23 08:39:13",66.189.167.229,"Mozilla/5.0 (Windows NT 10.0; Win64; x64) AppleWebKit/537.36 (KHTML, like Gecko) Chrome/97.0.4692.71 Safari/537.36",WebKit,Chrome,97.0.4692.71,Windows,10.0,e51aad313ae019d9205a5db3bc498b86
16,1,"""","""","""","""","""",video-button-response,20,989455,0.0-20.0,bwd19ywzf,81641,"[""video/yes_line_8_8cut.mp4""]",1,yes_8,video/yes_line_8_8cut.mp4,"2022-01-23 08:39:13",66.189.167.229,"Mozilla/5.0 (Windows NT 10.0; Win64; x64) AppleWebKit/537.36 (KHTML, like Gecko) Chrome/97.0.4692.71 Safari/537.36",WebKit,Chrome,97.0.4692.71,Windows,10.0,e51aad313ae019d9205a5db3bc498b86
16,1,"""","""","""","""","""",video-button-response,21,1077192,0.0-21.0,bwd19ywzf,87732,"[""video/yes_line_8_1cut.mp4""]",0,yes_1,video/yes_line_8_1cut.mp4,"2022-01-23 08:39:13",66.189.167.229,"Mozilla/5.0 (Windows NT 10.0; Win64; x64) AppleWebKit/537.36 (KHTML, like Gecko) Chrome/97.0.4692.71 Safari/537.36",WebKit,Chrome,97.0.4692.71,Windows,10.0,e51aad313ae019d9205a5db3bc498b86
16,1,"""","""","""","""","""",survey-text,22,1125441,0.0-22.0,bwd19ywzf,48238,"""","{""Q0"":""morally acceptable because there are many wells to get water from.""}",explanation,video/no_line_2_1cut.mp4,"2022-01-23 08:39:13",66.189.167.229,"Mozilla/5.0 (Windows NT 10.0; Win64; x64) AppleWebKit/537.36 (KHTML, like Gecko) Chrome/97.0.4692.71 Safari/537.36",WebKit,Chrome,97.0.4692.71,Windows,10.0,e51aad313ae019d9205a5db3bc498b86
16,1,"""","""","""","""","""",video-button-response,23,1156900,0.0-23.0,bwd19ywzf,31459,"[""video/no_line_2_4cut.mp4""]",1,no_34,video/no_line_2_4cut.mp4,"2022-01-23 08:39:13",66.189.167.229,"Mozilla/5.0 (Windows NT 10.0; Win64; x64) AppleWebKit/537.36 (KHTML, like Gecko) Chrome/97.0.4692.71 Safari/537.36",WebKit,Chrome,97.0.4692.71,Windows,10.0,e51aad313ae019d9205a5db3bc498b86
16,1,"""","""","""","""","""",video-button-response,24,1201619,0.0-24.0,bwd19ywzf,44714,"[""video/yes_line_9_8cut.mp4""]",0,yes_8,video/yes_line_9_8cut.mp4,"2022-01-23 08:39:13",66.189.167.229,"Mozilla/5.0 (Windows NT 10.0; Win64; x64) AppleWebKit/537.36 (KHTML, like Gecko) Chrome/97.0.4692.71 Safari/537.36",WebKit,Chrome,97.0.4692.71,Windows,10.0,e51aad313ae019d9205a5db3bc498b86
16,1,"""","""","""","""","""",video-button-response,25,1232636,0.0-25.0,bwd19ywzf,31013,"[""video/no_line_3_1cut.mp4""]",0,no_1,video/no_line_3_1cut.mp4,"2022-01-23 08:39:13",66.189.167.229,"Mozilla/5.0 (Windows NT 10.0; Win64; x64) AppleWebKit/537.36 (KHTML, like Gecko) Chrome/97.0.4692.71 Safari/537.36",WebKit,Chrome,97.0.4692.71,Windows,10.0,e51aad313ae019d9205a5db3bc498b86
16,1,"""","""","""","""","""",survey-text,26,1271974,0.0-26.0,bwd19ywzf,39328,"""","{""Q0"":""morally unacceptable because they cut corners""}",explanation,video/yes_line_7_4cut.mp4,"2022-01-23 08:39:13",66.189.167.229,"Mozilla/5.0 (Windows NT 10.0; Win64; x64) AppleWebKit/537.36 (KHTML, like Gecko) Chrome/97.0.4692.71 Safari/537.36",WebKit,Chrome,97.0.4692.71,Windows,10.0,e51aad313ae019d9205a5db3bc498b86
16,1,"""","""","""","""","""",survey-html-form,27,1284135,0.0-27.0,bwd19ywzf,12158,"""","[{""name"":""understand"",""value"":""yes""},{""name"":""problems"",""value"":""No""},{""name"":""age"",""value"":""28""},{""name"":""gender"",""value"":""female""},{""name"":""comments"",""value"":""}]",debrief,"""","2022-01-23 08:39:13",66.189.167.229,"Mozilla/5.0 (Windows NT 10.0; Win64; x64) AppleWebKit/537.36 (KHTML, like Gecko) Chrome/97.0.4692.71 Safari/537.36",WebKit,Chrome,97.0.4692.71,Windows,10.0,e51aad313ae019d9205a5db3bc498b86
16,1,"""","""","""","""","""",html-keyboard-response,28,1297805,0.0-28.0,bwd19ywzf,13666,"<div style=""font-size:20px;"">This task is now over. The completion code is: bwd19ywzf Press space after you have the completion code to finish. Thank you for your participation! </div>"," ","""","""","2022-01-23 08:39:13",66.189.167.229,"Mozilla/5.0 (Windows NT 10.0; Win64; x64) AppleWebKit/537.36 (KHTML, like Gecko) Chrome/97.0.4692.71 Safari/537.36",WebKit,Chrome,97.0.4692.71,Windows,10.0,e51aad313ae019d9205a5db3bc498b86
