run_id,condition,success,timeout,failed_images,failed_audio,failed_video,trial_type,trial_index,time_elapsed,internal_node_id,ID,rt,stimulus,response,trial_category,stimulus_name,recorded_at,ip,user_agent,device,browser,browser_version,platform,platform_version,source_code_version
18,1,true,false,[],[],[],preload,0,2942,0.0-0.0,l4e2lahos,"""","""","""","""","""","2022-01-23 09:23:28",64.53.196.221,"Mozilla/5.0 (Windows NT 10.0; Win64; x64) AppleWebKit/537.36 (KHTML, like Gecko) Chrome/97.0.4692.71 Safari/537.36",WebKit,Chrome,97.0.4692.71,Windows,10.0,e51aad313ae019d9205a5db3bc498b86
18,1,"""","""","""","""","""",html-keyboard-response,1,6151,0.0-1.0,l4e2lahos,3201,"<p style=""text-align:center;width:700px;""> Welcome to the experiment! This study takes most people around 20 minutes to complete. Please complete it in one sitting.</p>"," ","""","""","2022-01-23 09:23:28",64.53.196.221,"Mozilla/5.0 (Windows NT 10.0; Win64; x64) AppleWebKit/537.36 (KHTML, like Gecko) Chrome/97.0.4692.71 Safari/537.36",WebKit,Chrome,97.0.4692.71,Windows,10.0,e51aad313ae019d9205a5db3bc498b86
18,1,"""","""","""","""","""",html-keyboard-response,2,10823,0.0-2.0,l4e2lahos,4671,"<p style = ""font-size:16px;"">MIT Computational Cognitive Science Lab</p><h4>Press the 'y' key to consent.</h4><div style = ""background-color:#f2f2f2;""><h3>Informed Consent Form</h3><div style=""text-align:left;width:700px;""><p style = ""font-size:16px;"">In this HIT, you will be asked to read a set of instructions that describe a particular scenario, and you will then be asked to perform a simple task relating to that scenario. There will also be comprehension and attention checks. Participants who do not answer these checks correctly cannot be approved. In order to get credit for this HIT, you must read all the questions fully and answer honestly. You may only complete this HIT once. If you complete this HIT multiple times, you will be rejected.</p><p style = ""font-size:16px;"">This HIT is part of a MIT scientific research project. Your decision to complete this HIT is voluntary. There is no way for us to identify you. The only information we will have, in addition to your responses, is the time at which you completed the survey. The results of the research may be presented at scientific meetings or published in scientific journals. Pressing the ""Y"" key indicates that you are at least 18 years of age, and agree to complete this HIT voluntarily. Press the ""Y"" key to confirm your agreement and continue.</p></div>",y,"""","""","2022-01-23 09:23:28",64.53.196.221,"Mozilla/5.0 (Windows NT 10.0; Win64; x64) AppleWebKit/537.36 (KHTML, like Gecko) Chrome/97.0.4692.71 Safari/537.36",WebKit,Chrome,97.0.4692.71,Windows,10.0,e51aad313ae019d9205a5db3bc498b86
18,1,"""","""","""","""","""",survey-text,3,36141,0.0-3.0,l4e2lahos,25292,"""","{""instructions1"":"" to collect water""}",instructions,"""","2022-01-23 09:23:28",64.53.196.221,"Mozilla/5.0 (Windows NT 10.0; Win64; x64) AppleWebKit/537.36 (KHTML, like Gecko) Chrome/97.0.4692.71 Safari/537.36",WebKit,Chrome,97.0.4692.71,Windows,10.0,e51aad313ae019d9205a5db3bc498b86
18,1,"""","""","""","""","""",survey-text,4,95361,0.0-4.0,l4e2lahos,59200,"""","{""instructions2"":""when all 8 people collect water and store it in a wooden storage bucket.""}",instructions,"""","2022-01-23 09:23:28",64.53.196.221,"Mozilla/5.0 (Windows NT 10.0; Win64; x64) AppleWebKit/537.36 (KHTML, like Gecko) Chrome/97.0.4692.71 Safari/537.36",WebKit,Chrome,97.0.4692.71,Windows,10.0,e51aad313ae019d9205a5db3bc498b86
18,1,"""","""","""","""","""",survey-text,5,122790,0.0-5.0,l4e2lahos,27416,"""","{""instructions3"":""one""}",instructions,"""","2022-01-23 09:23:28",64.53.196.221,"Mozilla/5.0 (Windows NT 10.0; Win64; x64) AppleWebKit/537.36 (KHTML, like Gecko) Chrome/97.0.4692.71 Safari/537.36",WebKit,Chrome,97.0.4692.71,Windows,10.0,e51aad313ae019d9205a5db3bc498b86
18,1,"""","""","""","""","""",survey-text,6,192366,0.0-6.0,l4e2lahos,69560,"""","{""Q0"":""morally acceptable because they waited their turn""}",explanation,video/no_line_3_8cut.mp4,"2022-01-23 09:23:28",64.53.196.221,"Mozilla/5.0 (Windows NT 10.0; Win64; x64) AppleWebKit/537.36 (KHTML, like Gecko) Chrome/97.0.4692.71 Safari/537.36",WebKit,Chrome,97.0.4692.71,Windows,10.0,e51aad313ae019d9205a5db3bc498b86
18,1,"""","""","""","""","""",video-button-response,7,238918,0.0-7.0,l4e2lahos,46543,"[""video/yes_line_9_8cut.mp4""]",1,yes_8,video/yes_line_9_8cut.mp4,"2022-01-23 09:23:28",64.53.196.221,"Mozilla/5.0 (Windows NT 10.0; Win64; x64) AppleWebKit/537.36 (KHTML, like Gecko) Chrome/97.0.4692.71 Safari/537.36",WebKit,Chrome,97.0.4692.71,Windows,10.0,e51aad313ae019d9205a5db3bc498b86
18,1,"""","""","""","""","""",video-button-response,8,311005,0.0-8.0,l4e2lahos,72082,"[""video/yes_line_10_1cut.mp4""]",0,yes_1,video/yes_line_10_1cut.mp4,"2022-01-23 09:23:28",64.53.196.221,"Mozilla/5.0 (Windows NT 10.0; Win64; x64) AppleWebKit/537.36 (KHTML, like Gecko) Chrome/97.0.4692.71 Safari/537.36",WebKit,Chrome,97.0.4692.71,Windows,10.0,e51aad313ae019d9205a5db3bc498b86
18,1,"""","""","""","""","""",video-button-response,9,343269,0.0-9.0,l4e2lahos,32256,"[""video/yes_line_9_1cut.mp4""]",1,yes_1,video/yes_line_9_1cut.mp4,"2022-01-23 09:23:28",64.53.196.221,"Mozilla/5.0 (Windows NT 10.0; Win64; x64) AppleWebKit/537.36 (KHTML, like Gecko) Chrome/97.0.4692.71 Safari/537.36",WebKit,Chrome,97.0.4692.71,Windows,10.0,e51aad313ae019d9205a5db3bc498b86
18,1,"""","""","""","""","""",survey-text,10,397012,0.0-10.0,l4e2lahos,53735,"""","{""Q0"":""morally acceptable because they just got their water and dumped it off then moved out of the way.""}",explanation,video/no_line_2_4cut.mp4,"2022-01-23 09:23:28",64.53.196.221,"Mozilla/5.0 (Windows NT 10.0; Win64; x64) AppleWebKit/537.36 (KHTML, like Gecko) Chrome/97.0.4692.71 Safari/537.36",WebKit,Chrome,97.0.4692.71,Windows,10.0,e51aad313ae019d9205a5db3bc498b86
18,1,"""","""","""","""","""",video-button-response,11,459020,0.0-11.0,l4e2lahos,62001,"[""video/yes_line_8_3cut.mp4""]",1,yes_34,video/yes_line_8_3cut.mp4,"2022-01-23 09:23:28",64.53.196.221,"Mozilla/5.0 (Windows NT 10.0; Win64; x64) AppleWebKit/537.36 (KHTML, like Gecko) Chrome/97.0.4692.71 Safari/537.36",WebKit,Chrome,97.0.4692.71,Windows,10.0,e51aad313ae019d9205a5db3bc498b86
18,1,"""","""","""","""","""",video-button-response,12,538806,0.0-12.0,l4e2lahos,79781,"[""video/yes_line_10_3cut.mp4""]",0,yes_34,video/yes_line_10_3cut.mp4,"2022-01-23 09:23:28",64.53.196.221,"Mozilla/5.0 (Windows NT 10.0; Win64; x64) AppleWebKit/537.36 (KHTML, like Gecko) Chrome/97.0.4692.71 Safari/537.36",WebKit,Chrome,97.0.4692.71,Windows,10.0,e51aad313ae019d9205a5db3bc498b86
18,1,"""","""","""","""","""",video-button-response,13,728049,0.0-13.0,l4e2lahos,189237,"[""video/yes_line_10_8cut.mp4""]",1,yes_8,video/yes_line_10_8cut.mp4,"2022-01-23 09:23:28",64.53.196.221,"Mozilla/5.0 (Windows NT 10.0; Win64; x64) AppleWebKit/537.36 (KHTML, like Gecko) Chrome/97.0.4692.71 Safari/537.36",WebKit,Chrome,97.0.4692.71,Windows,10.0,e51aad313ae019d9205a5db3bc498b86
18,1,"""","""","""","""","""",survey-text,14,782634,0.0-14.0,l4e2lahos,54576,"""","{""Q0"":""morally unacceptable because they cut in line and didn't wait their turn""}",explanation,video/yes_line_7_1cut.mp4,"2022-01-23 09:23:28",64.53.196.221,"Mozilla/5.0 (Windows NT 10.0; Win64; x64) AppleWebKit/537.36 (KHTML, like Gecko) Chrome/97.0.4692.71 Safari/537.36",WebKit,Chrome,97.0.4692.71,Windows,10.0,e51aad313ae019d9205a5db3bc498b86
18,1,"""","""","""","""","""",video-button-response,15,812745,0.0-15.0,l4e2lahos,30099,"[""video/no_line_1_3cut.mp4""]",1,no_34,video/no_line_1_3cut.mp4,"2022-01-23 09:23:28",64.53.196.221,"Mozilla/5.0 (Windows NT 10.0; Win64; x64) AppleWebKit/537.36 (KHTML, like Gecko) Chrome/97.0.4692.71 Safari/537.36",WebKit,Chrome,97.0.4692.71,Windows,10.0,e51aad313ae019d9205a5db3bc498b86
18,1,"""","""","""","""","""",video-button-response,16,833002,0.0-16.0,l4e2lahos,20253,"[""video/no_line_2_8cut.mp4""]",1,no_8,video/no_line_2_8cut.mp4,"2022-01-23 09:23:28",64.53.196.221,"Mozilla/5.0 (Windows NT 10.0; Win64; x64) AppleWebKit/537.36 (KHTML, like Gecko) Chrome/97.0.4692.71 Safari/537.36",WebKit,Chrome,97.0.4692.71,Windows,10.0,e51aad313ae019d9205a5db3bc498b86
18,1,"""","""","""","""","""",video-button-response,17,871009,0.0-17.0,l4e2lahos,38000,"[""video/yes_line_9_3cut.mp4""]",1,yes_34,video/yes_line_9_3cut.mp4,"2022-01-23 09:23:28",64.53.196.221,"Mozilla/5.0 (Windows NT 10.0; Win64; x64) AppleWebKit/537.36 (KHTML, like Gecko) Chrome/97.0.4692.71 Safari/537.36",WebKit,Chrome,97.0.4692.71,Windows,10.0,e51aad313ae019d9205a5db3bc498b86
18,1,"""","""","""","""","""",survey-text,18,944434,0.0-18.0,l4e2lahos,73415,"""","{""Q0"":""morally acceptable because they went to an empty well and gathered their water""}",explanation,video/no_line_2_1cut.mp4,"2022-01-23 09:23:28",64.53.196.221,"Mozilla/5.0 (Windows NT 10.0; Win64; x64) AppleWebKit/537.36 (KHTML, like Gecko) Chrome/97.0.4692.71 Safari/537.36",WebKit,Chrome,97.0.4692.71,Windows,10.0,e51aad313ae019d9205a5db3bc498b86
18,1,"""","""","""","""","""",video-button-response,19,996360,0.0-19.0,l4e2lahos,51917,"[""video/yes_line_8_1cut.mp4""]",0,yes_1,video/yes_line_8_1cut.mp4,"2022-01-23 09:23:28",64.53.196.221,"Mozilla/5.0 (Windows NT 10.0; Win64; x64) AppleWebKit/537.36 (KHTML, like Gecko) Chrome/97.0.4692.71 Safari/537.36",WebKit,Chrome,97.0.4692.71,Windows,10.0,e51aad313ae019d9205a5db3bc498b86
18,1,"""","""","""","""","""",video-button-response,20,1040736,0.0-20.0,l4e2lahos,44373,"[""video/yes_line_7_4cut.mp4""]",0,yes_34,video/yes_line_7_4cut.mp4,"2022-01-23 09:23:28",64.53.196.221,"Mozilla/5.0 (Windows NT 10.0; Win64; x64) AppleWebKit/537.36 (KHTML, like Gecko) Chrome/97.0.4692.71 Safari/537.36",WebKit,Chrome,97.0.4692.71,Windows,10.0,e51aad313ae019d9205a5db3bc498b86
18,1,"""","""","""","""","""",video-button-response,21,1106504,0.0-21.0,l4e2lahos,65761,"[""video/yes_line_7_8cut.mp4""]",1,yes_8,video/yes_line_7_8cut.mp4,"2022-01-23 09:23:28",64.53.196.221,"Mozilla/5.0 (Windows NT 10.0; Win64; x64) AppleWebKit/537.36 (KHTML, like Gecko) Chrome/97.0.4692.71 Safari/537.36",WebKit,Chrome,97.0.4692.71,Windows,10.0,e51aad313ae019d9205a5db3bc498b86
18,1,"""","""","""","""","""",survey-text,22,1163231,0.0-22.0,l4e2lahos,56715,"""","{""Q0"":""morally acceptable because they found an open spot of water and didn't bother anyone else""}",explanation,video/no_line_1_1cut.mp4,"2022-01-23 09:23:28",64.53.196.221,"Mozilla/5.0 (Windows NT 10.0; Win64; x64) AppleWebKit/537.36 (KHTML, like Gecko) Chrome/97.0.4692.71 Safari/537.36",WebKit,Chrome,97.0.4692.71,Windows,10.0,e51aad313ae019d9205a5db3bc498b86
18,1,"""","""","""","""","""",video-button-response,23,1195927,0.0-23.0,l4e2lahos,32688,"[""video/no_line_3_1cut.mp4""]",1,no_1,video/no_line_3_1cut.mp4,"2022-01-23 09:23:28",64.53.196.221,"Mozilla/5.0 (Windows NT 10.0; Win64; x64) AppleWebKit/537.36 (KHTML, like Gecko) Chrome/97.0.4692.71 Safari/537.36",WebKit,Chrome,97.0.4692.71,Windows,10.0,e51aad313ae019d9205a5db3bc498b86
18,1,"""","""","""","""","""",video-button-response,24,1272766,0.0-24.0,l4e2lahos,76835,"[""video/yes_line_8_8cut.mp4""]",1,yes_8,video/yes_line_8_8cut.mp4,"2022-01-23 09:23:28",64.53.196.221,"Mozilla/5.0 (Windows NT 10.0; Win64; x64) AppleWebKit/537.36 (KHTML, like Gecko) Chrome/97.0.4692.71 Safari/537.36",WebKit,Chrome,97.0.4692.71,Windows,10.0,e51aad313ae019d9205a5db3bc498b86
18,1,"""","""","""","""","""",video-button-response,25,1297822,0.0-25.0,l4e2lahos,25049,"[""video/no_line_1_8cut.mp4""]",1,no_8,video/no_line_1_8cut.mp4,"2022-01-23 09:23:28",64.53.196.221,"Mozilla/5.0 (Windows NT 10.0; Win64; x64) AppleWebKit/537.36 (KHTML, like Gecko) Chrome/97.0.4692.71 Safari/537.36",WebKit,Chrome,97.0.4692.71,Windows,10.0,e51aad313ae019d9205a5db3bc498b86
18,1,"""","""","""","""","""",survey-text,26,1340278,0.0-26.0,l4e2lahos,42445,"""","{""Q0"":""morally acceptable because they found an open spot of water and waited their turn""}",explanation,video/no_line_3_3cut.mp4,"2022-01-23 09:23:28",64.53.196.221,"Mozilla/5.0 (Windows NT 10.0; Win64; x64) AppleWebKit/537.36 (KHTML, like Gecko) Chrome/97.0.4692.71 Safari/537.36",WebKit,Chrome,97.0.4692.71,Windows,10.0,e51aad313ae019d9205a5db3bc498b86
18,1,"""","""","""","""","""",survey-html-form,27,1353058,0.0-27.0,l4e2lahos,12767,"""","[{""name"":""understand"",""value"":""yes""},{""name"":""problems"",""value"":""no""},{""name"":""age"",""value"":""52""},{""name"":""gender"",""value"":""female""},{""name"":""comments"",""value"":""no""}]",debrief,"""","2022-01-23 09:23:28",64.53.196.221,"Mozilla/5.0 (Windows NT 10.0; Win64; x64) AppleWebKit/537.36 (KHTML, like Gecko) Chrome/97.0.4692.71 Safari/537.36",WebKit,Chrome,97.0.4692.71,Windows,10.0,e51aad313ae019d9205a5db3bc498b86
18,1,"""","""","""","""","""",html-keyboard-response,28,1365901,0.0-28.0,l4e2lahos,12838,"<div style=""font-size:20px;"">This task is now over. The completion code is: l4e2lahos Press space after you have the completion code to finish. Thank you for your participation! </div>"," ","""","""","2022-01-23 09:23:28",64.53.196.221,"Mozilla/5.0 (Windows NT 10.0; Win64; x64) AppleWebKit/537.36 (KHTML, like Gecko) Chrome/97.0.4692.71 Safari/537.36",WebKit,Chrome,97.0.4692.71,Windows,10.0,e51aad313ae019d9205a5db3bc498b86
