run_id,condition,success,timeout,failed_images,failed_audio,failed_video,trial_type,trial_index,time_elapsed,internal_node_id,ID,rt,stimulus,response,trial_category,stimulus_name,recorded_at,ip,user_agent,device,browser,browser_version,platform,platform_version,source_code_version
75,1,true,false,[],[],[],preload,0,17327,0.0-0.0,rj0gpjcgn,"""","""","""","""","""","2022-01-24 05:45:08",70.176.79.62,"Mozilla/5.0 (Windows NT 10.0; Win64; x64) AppleWebKit/537.36 (KHTML, like Gecko) Chrome/97.0.4692.99 Safari/537.36",WebKit,Chrome,97.0.4692.99,Windows,10.0,4d5ed8b1f2f00df59eccea4670b22524
75,1,"""","""","""","""","""",html-keyboard-response,1,22350,0.0-1.0,rj0gpjcgn,5021,"<p style=""text-align:center;width:700px;""> Welcome to the experiment! This study takes most people around 20 minutes to complete. Please complete it in one sitting.</p>"," ","""","""","2022-01-24 05:45:08",70.176.79.62,"Mozilla/5.0 (Windows NT 10.0; Win64; x64) AppleWebKit/537.36 (KHTML, like Gecko) Chrome/97.0.4692.99 Safari/537.36",WebKit,Chrome,97.0.4692.99,Windows,10.0,4d5ed8b1f2f00df59eccea4670b22524
75,1,"""","""","""","""","""",html-keyboard-response,2,62273,0.0-2.0,rj0gpjcgn,39921,"<p style = ""font-size:16px;"">MIT Computational Cognitive Science Lab</p><h4>Press the 'y' key to consent.</h4><div style = ""background-color:#f2f2f2;""><h3>Informed Consent Form</h3><div style=""text-align:left;width:700px;""><p style = ""font-size:16px;"">In this HIT, you will be asked to read a set of instructions that describe a particular scenario, and you will then be asked to perform a simple task relating to that scenario. There will also be comprehension and attention checks. Participants who do not answer these checks correctly cannot be approved. In order to get credit for this HIT, you must read all the questions fully and answer honestly. You may only complete this HIT once. If you complete this HIT multiple times, you will be rejected.</p><p style = ""font-size:16px;"">This HIT is part of a MIT scientific research project. Your decision to complete this HIT is voluntary. There is no way for us to identify you. The only information we will have, in addition to your responses, is the time at which you completed the survey. The results of the research may be presented at scientific meetings or published in scientific journals. Pressing the ""Y"" key indicates that you are at least 18 years of age, and agree to complete this HIT voluntarily. Press the ""Y"" key to confirm your agreement and continue.</p></div>",y,"""","""","2022-01-24 05:45:08",70.176.79.62,"Mozilla/5.0 (Windows NT 10.0; Win64; x64) AppleWebKit/537.36 (KHTML, like Gecko) Chrome/97.0.4692.99 Safari/537.36",WebKit,Chrome,97.0.4692.99,Windows,10.0,4d5ed8b1f2f00df59eccea4670b22524
75,1,"""","""","""","""","""",survey-text,3,238453,0.0-3.0,rj0gpjcgn,176175,"""","{""instructions1"":""to collect water from a water source and bring it back to a storage bucket as quickly as they can in order to receive the most points""}",instructions,"""","2022-01-24 05:45:08",70.176.79.62,"Mozilla/5.0 (Windows NT 10.0; Win64; x64) AppleWebKit/537.36 (KHTML, like Gecko) Chrome/97.0.4692.99 Safari/537.36",WebKit,Chrome,97.0.4692.99,Windows,10.0,4d5ed8b1f2f00df59eccea4670b22524
75,1,"""","""","""","""","""",survey-text,4,353972,0.0-4.0,rj0gpjcgn,115514,"""","{""instructions2"":""when all 8 people have collected water from the water source and have stored it in a wooden storage bucket""}",instructions,"""","2022-01-24 05:45:08",70.176.79.62,"Mozilla/5.0 (Windows NT 10.0; Win64; x64) AppleWebKit/537.36 (KHTML, like Gecko) Chrome/97.0.4692.99 Safari/537.36",WebKit,Chrome,97.0.4692.99,Windows,10.0,4d5ed8b1f2f00df59eccea4670b22524
75,1,"""","""","""","""","""",survey-text,5,630293,0.0-5.0,rj0gpjcgn,276318,"""","{""instructions3"":""one""}",instructions,"""","2022-01-24 05:45:08",70.176.79.62,"Mozilla/5.0 (Windows NT 10.0; Win64; x64) AppleWebKit/537.36 (KHTML, like Gecko) Chrome/97.0.4692.99 Safari/537.36",WebKit,Chrome,97.0.4692.99,Windows,10.0,4d5ed8b1f2f00df59eccea4670b22524
75,1,"""","""","""","""","""",video-button-response,6,711783,0.0-6.0,rj0gpjcgn,81486,"[""video/yes_line_8_1cut.mp4""]",0,yes_1,video/yes_line_8_1cut.mp4,"2022-01-24 05:45:08",70.176.79.62,"Mozilla/5.0 (Windows NT 10.0; Win64; x64) AppleWebKit/537.36 (KHTML, like Gecko) Chrome/97.0.4692.99 Safari/537.36",WebKit,Chrome,97.0.4692.99,Windows,10.0,4d5ed8b1f2f00df59eccea4670b22524
75,1,"""","""","""","""","""",video-button-response,7,790470,0.0-7.0,rj0gpjcgn,78684,"[""video/yes_line_8_8cut.mp4""]",1,yes_8,video/yes_line_8_8cut.mp4,"2022-01-24 05:45:08",70.176.79.62,"Mozilla/5.0 (Windows NT 10.0; Win64; x64) AppleWebKit/537.36 (KHTML, like Gecko) Chrome/97.0.4692.99 Safari/537.36",WebKit,Chrome,97.0.4692.99,Windows,10.0,4d5ed8b1f2f00df59eccea4670b22524
75,1,"""","""","""","""","""",video-button-response,8,826854,0.0-8.0,rj0gpjcgn,36382,"[""video/no_line_1_8cut.mp4""]",1,no_8,video/no_line_1_8cut.mp4,"2022-01-24 05:45:08",70.176.79.62,"Mozilla/5.0 (Windows NT 10.0; Win64; x64) AppleWebKit/537.36 (KHTML, like Gecko) Chrome/97.0.4692.99 Safari/537.36",WebKit,Chrome,97.0.4692.99,Windows,10.0,4d5ed8b1f2f00df59eccea4670b22524
75,1,"""","""","""","""","""",video-button-response,9,850863,0.0-9.0,rj0gpjcgn,24005,"[""video/no_line_3_3cut.mp4""]",1,no_34,video/no_line_3_3cut.mp4,"2022-01-24 05:45:08",70.176.79.62,"Mozilla/5.0 (Windows NT 10.0; Win64; x64) AppleWebKit/537.36 (KHTML, like Gecko) Chrome/97.0.4692.99 Safari/537.36",WebKit,Chrome,97.0.4692.99,Windows,10.0,4d5ed8b1f2f00df59eccea4670b22524
75,1,"""","""","""","""","""",video-button-response,10,879822,0.0-10.0,rj0gpjcgn,28957,"[""video/yes_line_7_1cut.mp4""]",0,yes_1,video/yes_line_7_1cut.mp4,"2022-01-24 05:45:08",70.176.79.62,"Mozilla/5.0 (Windows NT 10.0; Win64; x64) AppleWebKit/537.36 (KHTML, like Gecko) Chrome/97.0.4692.99 Safari/537.36",WebKit,Chrome,97.0.4692.99,Windows,10.0,4d5ed8b1f2f00df59eccea4670b22524
75,1,"""","""","""","""","""",video-button-response,11,912015,0.0-11.0,rj0gpjcgn,32190,"[""video/no_line_2_1cut.mp4""]",1,no_1,video/no_line_2_1cut.mp4,"2022-01-24 05:45:08",70.176.79.62,"Mozilla/5.0 (Windows NT 10.0; Win64; x64) AppleWebKit/537.36 (KHTML, like Gecko) Chrome/97.0.4692.99 Safari/537.36",WebKit,Chrome,97.0.4692.99,Windows,10.0,4d5ed8b1f2f00df59eccea4670b22524
75,1,"""","""","""","""","""",video-button-response,12,941061,0.0-12.0,rj0gpjcgn,29045,"[""video/no_line_1_1cut.mp4""]",1,no_1,video/no_line_1_1cut.mp4,"2022-01-24 05:45:08",70.176.79.62,"Mozilla/5.0 (Windows NT 10.0; Win64; x64) AppleWebKit/537.36 (KHTML, like Gecko) Chrome/97.0.4692.99 Safari/537.36",WebKit,Chrome,97.0.4692.99,Windows,10.0,4d5ed8b1f2f00df59eccea4670b22524
75,1,"""","""","""","""","""",video-button-response,13,996998,0.0-13.0,rj0gpjcgn,55934,"[""video/no_line_3_8cut.mp4""]",1,no_8,video/no_line_3_8cut.mp4,"2022-01-24 05:45:08",70.176.79.62,"Mozilla/5.0 (Windows NT 10.0; Win64; x64) AppleWebKit/537.36 (KHTML, like Gecko) Chrome/97.0.4692.99 Safari/537.36",WebKit,Chrome,97.0.4692.99,Windows,10.0,4d5ed8b1f2f00df59eccea4670b22524
75,1,"""","""","""","""","""",video-button-response,14,1050653,0.0-14.0,rj0gpjcgn,53652,"[""video/yes_line_10_3cut.mp4""]",1,yes_34,video/yes_line_10_3cut.mp4,"2022-01-24 05:45:08",70.176.79.62,"Mozilla/5.0 (Windows NT 10.0; Win64; x64) AppleWebKit/537.36 (KHTML, like Gecko) Chrome/97.0.4692.99 Safari/537.36",WebKit,Chrome,97.0.4692.99,Windows,10.0,4d5ed8b1f2f00df59eccea4670b22524
75,1,"""","""","""","""","""",video-button-response,15,1113966,0.0-15.0,rj0gpjcgn,63310,"[""video/yes_line_10_8cut.mp4""]",1,yes_8,video/yes_line_10_8cut.mp4,"2022-01-24 05:45:08",70.176.79.62,"Mozilla/5.0 (Windows NT 10.0; Win64; x64) AppleWebKit/537.36 (KHTML, like Gecko) Chrome/97.0.4692.99 Safari/537.36",WebKit,Chrome,97.0.4692.99,Windows,10.0,4d5ed8b1f2f00df59eccea4670b22524
75,1,"""","""","""","""","""",video-button-response,16,1161998,0.0-16.0,rj0gpjcgn,48029,"[""video/yes_line_8_3cut.mp4""]",1,yes_34,video/yes_line_8_3cut.mp4,"2022-01-24 05:45:08",70.176.79.62,"Mozilla/5.0 (Windows NT 10.0; Win64; x64) AppleWebKit/537.36 (KHTML, like Gecko) Chrome/97.0.4692.99 Safari/537.36",WebKit,Chrome,97.0.4692.99,Windows,10.0,4d5ed8b1f2f00df59eccea4670b22524
75,1,"""","""","""","""","""",video-button-response,17,1200430,0.0-17.0,rj0gpjcgn,38428,"[""video/no_line_1_3cut.mp4""]",1,no_34,video/no_line_1_3cut.mp4,"2022-01-24 05:45:08",70.176.79.62,"Mozilla/5.0 (Windows NT 10.0; Win64; x64) AppleWebKit/537.36 (KHTML, like Gecko) Chrome/97.0.4692.99 Safari/537.36",WebKit,Chrome,97.0.4692.99,Windows,10.0,4d5ed8b1f2f00df59eccea4670b22524
75,1,"""","""","""","""","""",video-button-response,18,1235823,0.0-18.0,rj0gpjcgn,35391,"[""video/yes_line_7_8cut.mp4""]",1,yes_8,video/yes_line_7_8cut.mp4,"2022-01-24 05:45:08",70.176.79.62,"Mozilla/5.0 (Windows NT 10.0; Win64; x64) AppleWebKit/537.36 (KHTML, like Gecko) Chrome/97.0.4692.99 Safari/537.36",WebKit,Chrome,97.0.4692.99,Windows,10.0,4d5ed8b1f2f00df59eccea4670b22524
75,1,"""","""","""","""","""",video-button-response,19,1293911,0.0-19.0,rj0gpjcgn,58085,"[""video/yes_line_10_1cut.mp4""]",0,yes_1,video/yes_line_10_1cut.mp4,"2022-01-24 05:45:08",70.176.79.62,"Mozilla/5.0 (Windows NT 10.0; Win64; x64) AppleWebKit/537.36 (KHTML, like Gecko) Chrome/97.0.4692.99 Safari/537.36",WebKit,Chrome,97.0.4692.99,Windows,10.0,4d5ed8b1f2f00df59eccea4670b22524
75,1,"""","""","""","""","""",video-button-response,20,1317557,0.0-20.0,rj0gpjcgn,23645,"[""video/no_line_2_4cut.mp4""]",1,no_34,video/no_line_2_4cut.mp4,"2022-01-24 05:45:08",70.176.79.62,"Mozilla/5.0 (Windows NT 10.0; Win64; x64) AppleWebKit/537.36 (KHTML, like Gecko) Chrome/97.0.4692.99 Safari/537.36",WebKit,Chrome,97.0.4692.99,Windows,10.0,4d5ed8b1f2f00df59eccea4670b22524
75,1,"""","""","""","""","""",video-button-response,21,1351093,0.0-21.0,rj0gpjcgn,33533,"[""video/yes_line_9_1cut.mp4""]",0,yes_1,video/yes_line_9_1cut.mp4,"2022-01-24 05:45:08",70.176.79.62,"Mozilla/5.0 (Windows NT 10.0; Win64; x64) AppleWebKit/537.36 (KHTML, like Gecko) Chrome/97.0.4692.99 Safari/537.36",WebKit,Chrome,97.0.4692.99,Windows,10.0,4d5ed8b1f2f00df59eccea4670b22524
75,1,"""","""","""","""","""",video-button-response,22,1370294,0.0-22.0,rj0gpjcgn,19198,"[""video/no_line_2_8cut.mp4""]",1,no_8,video/no_line_2_8cut.mp4,"2022-01-24 05:45:08",70.176.79.62,"Mozilla/5.0 (Windows NT 10.0; Win64; x64) AppleWebKit/537.36 (KHTML, like Gecko) Chrome/97.0.4692.99 Safari/537.36",WebKit,Chrome,97.0.4692.99,Windows,10.0,4d5ed8b1f2f00df59eccea4670b22524
75,1,"""","""","""","""","""",video-button-response,23,1396935,0.0-23.0,rj0gpjcgn,26638,"[""video/no_line_3_1cut.mp4""]",1,no_1,video/no_line_3_1cut.mp4,"2022-01-24 05:45:08",70.176.79.62,"Mozilla/5.0 (Windows NT 10.0; Win64; x64) AppleWebKit/537.36 (KHTML, like Gecko) Chrome/97.0.4692.99 Safari/537.36",WebKit,Chrome,97.0.4692.99,Windows,10.0,4d5ed8b1f2f00df59eccea4670b22524
75,1,"""","""","""","""","""",video-button-response,24,1436710,0.0-24.0,rj0gpjcgn,39774,"[""video/yes_line_9_8cut.mp4""]",1,yes_8,video/yes_line_9_8cut.mp4,"2022-01-24 05:45:08",70.176.79.62,"Mozilla/5.0 (Windows NT 10.0; Win64; x64) AppleWebKit/537.36 (KHTML, like Gecko) Chrome/97.0.4692.99 Safari/537.36",WebKit,Chrome,97.0.4692.99,Windows,10.0,4d5ed8b1f2f00df59eccea4670b22524
75,1,"""","""","""","""","""",video-button-response,25,1470174,0.0-25.0,rj0gpjcgn,33460,"[""video/yes_line_9_3cut.mp4""]",1,yes_34,video/yes_line_9_3cut.mp4,"2022-01-24 05:45:08",70.176.79.62,"Mozilla/5.0 (Windows NT 10.0; Win64; x64) AppleWebKit/537.36 (KHTML, like Gecko) Chrome/97.0.4692.99 Safari/537.36",WebKit,Chrome,97.0.4692.99,Windows,10.0,4d5ed8b1f2f00df59eccea4670b22524
75,1,"""","""","""","""","""",video-button-response,26,1525709,0.0-26.0,rj0gpjcgn,55533,"[""video/yes_line_7_4cut.mp4""]",0,yes_34,video/yes_line_7_4cut.mp4,"2022-01-24 05:45:08",70.176.79.62,"Mozilla/5.0 (Windows NT 10.0; Win64; x64) AppleWebKit/537.36 (KHTML, like Gecko) Chrome/97.0.4692.99 Safari/537.36",WebKit,Chrome,97.0.4692.99,Windows,10.0,4d5ed8b1f2f00df59eccea4670b22524
75,1,"""","""","""","""","""",survey-html-form,27,1633519,0.0-27.0,rj0gpjcgn,107807,"""","[{""name"":""understand"",""value"":""yes""},{""name"":""problems"",""value"":""no""},{""name"":""age"",""value"":""48""},{""name"":""gender"",""value"":""male""},{""name"":""comments"",""value"":""some players were a combination of moral and immoral when looking at their specific moves""}]",debrief,"""","2022-01-24 05:45:08",70.176.79.62,"Mozilla/5.0 (Windows NT 10.0; Win64; x64) AppleWebKit/537.36 (KHTML, like Gecko) Chrome/97.0.4692.99 Safari/537.36",WebKit,Chrome,97.0.4692.99,Windows,10.0,4d5ed8b1f2f00df59eccea4670b22524
75,1,"""","""","""","""","""",html-keyboard-response,28,1647696,0.0-28.0,rj0gpjcgn,14175,"<div style=""font-size:20px;"">This task is now over. The completion code is: rj0gpjcgn You must press space after you have the completion code to finish. Thank you for your participation! </div>"," ","""","""","2022-01-24 05:45:08",70.176.79.62,"Mozilla/5.0 (Windows NT 10.0; Win64; x64) AppleWebKit/537.36 (KHTML, like Gecko) Chrome/97.0.4692.99 Safari/537.36",WebKit,Chrome,97.0.4692.99,Windows,10.0,4d5ed8b1f2f00df59eccea4670b22524
