run_id,condition,success,timeout,failed_images,failed_audio,failed_video,trial_type,trial_index,time_elapsed,internal_node_id,ID,rt,stimulus,response,trial_category,stimulus_name,recorded_at,ip,user_agent,device,browser,browser_version,platform,platform_version,source_code_version
82,1,true,false,[],[],[],preload,0,37896,0.0-0.0,skm3oc57n,"""","""","""","""","""","2022-01-24 06:01:53",76.219.107.229,"Mozilla/5.0 (X11; Linux x86_64) AppleWebKit/537.36 (KHTML, like Gecko) Chrome/91.0.4472.77 Safari/537.36",WebKit,Chrome,91.0.4472.77,Linux,,4d5ed8b1f2f00df59eccea4670b22524
82,1,"""","""","""","""","""",html-keyboard-response,1,40431,0.0-1.0,skm3oc57n,2526,"<p style=""text-align:center;width:700px;""> Welcome to the experiment! This study takes most people around 20 minutes to complete. Please complete it in one sitting.</p>"," ","""","""","2022-01-24 06:01:53",76.219.107.229,"Mozilla/5.0 (X11; Linux x86_64) AppleWebKit/537.36 (KHTML, like Gecko) Chrome/91.0.4472.77 Safari/537.36",WebKit,Chrome,91.0.4472.77,Linux,,4d5ed8b1f2f00df59eccea4670b22524
82,1,"""","""","""","""","""",html-keyboard-response,2,43246,0.0-2.0,skm3oc57n,2814,"<p style = ""font-size:16px;"">MIT Computational Cognitive Science Lab</p><h4>Press the 'y' key to consent.</h4><div style = ""background-color:#f2f2f2;""><h3>Informed Consent Form</h3><div style=""text-align:left;width:700px;""><p style = ""font-size:16px;"">In this HIT, you will be asked to read a set of instructions that describe a particular scenario, and you will then be asked to perform a simple task relating to that scenario. There will also be comprehension and attention checks. Participants who do not answer these checks correctly cannot be approved. In order to get credit for this HIT, you must read all the questions fully and answer honestly. You may only complete this HIT once. If you complete this HIT multiple times, you will be rejected.</p><p style = ""font-size:16px;"">This HIT is part of a MIT scientific research project. Your decision to complete this HIT is voluntary. There is no way for us to identify you. The only information we will have, in addition to your responses, is the time at which you completed the survey. The results of the research may be presented at scientific meetings or published in scientific journals. Pressing the ""Y"" key indicates that you are at least 18 years of age, and agree to complete this HIT voluntarily. Press the ""Y"" key to confirm your agreement and continue.</p></div>",y,"""","""","2022-01-24 06:01:53",76.219.107.229,"Mozilla/5.0 (X11; Linux x86_64) AppleWebKit/537.36 (KHTML, like Gecko) Chrome/91.0.4472.77 Safari/537.36",WebKit,Chrome,91.0.4472.77,Linux,,4d5ed8b1f2f00df59eccea4670b22524
82,1,"""","""","""","""","""",survey-text,3,53895,0.0-3.0,skm3oc57n,10638,"""","{""instructions1"":""Collect water""}",instructions,"""","2022-01-24 06:01:53",76.219.107.229,"Mozilla/5.0 (X11; Linux x86_64) AppleWebKit/537.36 (KHTML, like Gecko) Chrome/91.0.4472.77 Safari/537.36",WebKit,Chrome,91.0.4472.77,Linux,,4d5ed8b1f2f00df59eccea4670b22524
82,1,"""","""","""","""","""",survey-text,4,74494,0.0-4.0,skm3oc57n,20589,"""","{""instructions2"":""8 people collect water ""}",instructions,"""","2022-01-24 06:01:53",76.219.107.229,"Mozilla/5.0 (X11; Linux x86_64) AppleWebKit/537.36 (KHTML, like Gecko) Chrome/91.0.4472.77 Safari/537.36",WebKit,Chrome,91.0.4472.77,Linux,,4d5ed8b1f2f00df59eccea4670b22524
82,1,"""","""","""","""","""",survey-text,5,101303,0.0-5.0,skm3oc57n,26803,"""","{""instructions3"":""1""}",instructions,"""","2022-01-24 06:01:53",76.219.107.229,"Mozilla/5.0 (X11; Linux x86_64) AppleWebKit/537.36 (KHTML, like Gecko) Chrome/91.0.4472.77 Safari/537.36",WebKit,Chrome,91.0.4472.77,Linux,,4d5ed8b1f2f00df59eccea4670b22524
82,1,"""","""","""","""","""",video-button-response,6,124430,0.0-6.0,skm3oc57n,23119,"[""video/yes_line_7_4cut.mp4""]",0,yes_34,video/yes_line_7_4cut.mp4,"2022-01-24 06:01:53",76.219.107.229,"Mozilla/5.0 (X11; Linux x86_64) AppleWebKit/537.36 (KHTML, like Gecko) Chrome/91.0.4472.77 Safari/537.36",WebKit,Chrome,91.0.4472.77,Linux,,4d5ed8b1f2f00df59eccea4670b22524
82,1,"""","""","""","""","""",video-button-response,7,137797,0.0-7.0,skm3oc57n,13357,"[""video/no_line_2_4cut.mp4""]",1,no_34,video/no_line_2_4cut.mp4,"2022-01-24 06:01:53",76.219.107.229,"Mozilla/5.0 (X11; Linux x86_64) AppleWebKit/537.36 (KHTML, like Gecko) Chrome/91.0.4472.77 Safari/537.36",WebKit,Chrome,91.0.4472.77,Linux,,4d5ed8b1f2f00df59eccea4670b22524
82,1,"""","""","""","""","""",video-button-response,8,155341,0.0-8.0,skm3oc57n,17537,"[""video/no_line_3_8cut.mp4""]",1,no_8,video/no_line_3_8cut.mp4,"2022-01-24 06:01:53",76.219.107.229,"Mozilla/5.0 (X11; Linux x86_64) AppleWebKit/537.36 (KHTML, like Gecko) Chrome/91.0.4472.77 Safari/537.36",WebKit,Chrome,91.0.4472.77,Linux,,4d5ed8b1f2f00df59eccea4670b22524
82,1,"""","""","""","""","""",video-button-response,9,175778,0.0-9.0,skm3oc57n,20431,"[""video/yes_line_7_1cut.mp4""]",0,yes_1,video/yes_line_7_1cut.mp4,"2022-01-24 06:01:53",76.219.107.229,"Mozilla/5.0 (X11; Linux x86_64) AppleWebKit/537.36 (KHTML, like Gecko) Chrome/91.0.4472.77 Safari/537.36",WebKit,Chrome,91.0.4472.77,Linux,,4d5ed8b1f2f00df59eccea4670b22524
82,1,"""","""","""","""","""",video-button-response,10,192751,0.0-10.0,skm3oc57n,16966,"[""video/no_line_1_3cut.mp4""]",1,no_34,video/no_line_1_3cut.mp4,"2022-01-24 06:01:53",76.219.107.229,"Mozilla/5.0 (X11; Linux x86_64) AppleWebKit/537.36 (KHTML, like Gecko) Chrome/91.0.4472.77 Safari/537.36",WebKit,Chrome,91.0.4472.77,Linux,,4d5ed8b1f2f00df59eccea4670b22524
82,1,"""","""","""","""","""",video-button-response,11,249078,0.0-11.0,skm3oc57n,56316,"[""video/yes_line_10_8cut.mp4""]",1,yes_8,video/yes_line_10_8cut.mp4,"2022-01-24 06:01:53",76.219.107.229,"Mozilla/5.0 (X11; Linux x86_64) AppleWebKit/537.36 (KHTML, like Gecko) Chrome/91.0.4472.77 Safari/537.36",WebKit,Chrome,91.0.4472.77,Linux,,4d5ed8b1f2f00df59eccea4670b22524
82,1,"""","""","""","""","""",video-button-response,12,301092,0.0-12.0,skm3oc57n,52010,"[""video/yes_line_8_8cut.mp4""]",1,yes_8,video/yes_line_8_8cut.mp4,"2022-01-24 06:01:53",76.219.107.229,"Mozilla/5.0 (X11; Linux x86_64) AppleWebKit/537.36 (KHTML, like Gecko) Chrome/91.0.4472.77 Safari/537.36",WebKit,Chrome,91.0.4472.77,Linux,,4d5ed8b1f2f00df59eccea4670b22524
82,1,"""","""","""","""","""",video-button-response,13,317775,0.0-13.0,skm3oc57n,16678,"[""video/no_line_1_8cut.mp4""]",1,no_8,video/no_line_1_8cut.mp4,"2022-01-24 06:01:53",76.219.107.229,"Mozilla/5.0 (X11; Linux x86_64) AppleWebKit/537.36 (KHTML, like Gecko) Chrome/91.0.4472.77 Safari/537.36",WebKit,Chrome,91.0.4472.77,Linux,,4d5ed8b1f2f00df59eccea4670b22524
82,1,"""","""","""","""","""",video-button-response,14,362438,0.0-14.0,skm3oc57n,44658,"[""video/yes_line_8_3cut.mp4""]",1,yes_34,video/yes_line_8_3cut.mp4,"2022-01-24 06:01:53",76.219.107.229,"Mozilla/5.0 (X11; Linux x86_64) AppleWebKit/537.36 (KHTML, like Gecko) Chrome/91.0.4472.77 Safari/537.36",WebKit,Chrome,91.0.4472.77,Linux,,4d5ed8b1f2f00df59eccea4670b22524
82,1,"""","""","""","""","""",video-button-response,15,386805,0.0-15.0,skm3oc57n,24358,"[""video/yes_line_7_8cut.mp4""]",0,yes_8,video/yes_line_7_8cut.mp4,"2022-01-24 06:01:53",76.219.107.229,"Mozilla/5.0 (X11; Linux x86_64) AppleWebKit/537.36 (KHTML, like Gecko) Chrome/91.0.4472.77 Safari/537.36",WebKit,Chrome,91.0.4472.77,Linux,,4d5ed8b1f2f00df59eccea4670b22524
82,1,"""","""","""","""","""",video-button-response,16,435797,0.0-16.0,skm3oc57n,48984,"[""video/yes_line_10_3cut.mp4""]",1,yes_34,video/yes_line_10_3cut.mp4,"2022-01-24 06:01:53",76.219.107.229,"Mozilla/5.0 (X11; Linux x86_64) AppleWebKit/537.36 (KHTML, like Gecko) Chrome/91.0.4472.77 Safari/537.36",WebKit,Chrome,91.0.4472.77,Linux,,4d5ed8b1f2f00df59eccea4670b22524
82,1,"""","""","""","""","""",video-button-response,17,454237,0.0-17.0,skm3oc57n,18430,"[""video/no_line_2_1cut.mp4""]",1,no_1,video/no_line_2_1cut.mp4,"2022-01-24 06:01:53",76.219.107.229,"Mozilla/5.0 (X11; Linux x86_64) AppleWebKit/537.36 (KHTML, like Gecko) Chrome/91.0.4472.77 Safari/537.36",WebKit,Chrome,91.0.4472.77,Linux,,4d5ed8b1f2f00df59eccea4670b22524
82,1,"""","""","""","""","""",video-button-response,18,484972,0.0-18.0,skm3oc57n,30728,"[""video/yes_line_9_8cut.mp4""]",1,yes_8,video/yes_line_9_8cut.mp4,"2022-01-24 06:01:53",76.219.107.229,"Mozilla/5.0 (X11; Linux x86_64) AppleWebKit/537.36 (KHTML, like Gecko) Chrome/91.0.4472.77 Safari/537.36",WebKit,Chrome,91.0.4472.77,Linux,,4d5ed8b1f2f00df59eccea4670b22524
82,1,"""","""","""","""","""",video-button-response,19,529197,0.0-19.0,skm3oc57n,44215,"[""video/yes_line_9_3cut.mp4""]",0,yes_34,video/yes_line_9_3cut.mp4,"2022-01-24 06:01:53",76.219.107.229,"Mozilla/5.0 (X11; Linux x86_64) AppleWebKit/537.36 (KHTML, like Gecko) Chrome/91.0.4472.77 Safari/537.36",WebKit,Chrome,91.0.4472.77,Linux,,4d5ed8b1f2f00df59eccea4670b22524
82,1,"""","""","""","""","""",video-button-response,20,539238,0.0-20.0,skm3oc57n,10033,"[""video/no_line_2_8cut.mp4""]",1,no_8,video/no_line_2_8cut.mp4,"2022-01-24 06:01:53",76.219.107.229,"Mozilla/5.0 (X11; Linux x86_64) AppleWebKit/537.36 (KHTML, like Gecko) Chrome/91.0.4472.77 Safari/537.36",WebKit,Chrome,91.0.4472.77,Linux,,4d5ed8b1f2f00df59eccea4670b22524
82,1,"""","""","""","""","""",video-button-response,21,554181,0.0-21.0,skm3oc57n,14937,"[""video/no_line_3_3cut.mp4""]",1,no_34,video/no_line_3_3cut.mp4,"2022-01-24 06:01:53",76.219.107.229,"Mozilla/5.0 (X11; Linux x86_64) AppleWebKit/537.36 (KHTML, like Gecko) Chrome/91.0.4472.77 Safari/537.36",WebKit,Chrome,91.0.4472.77,Linux,,4d5ed8b1f2f00df59eccea4670b22524
82,1,"""","""","""","""","""",video-button-response,22,604085,0.0-22.0,skm3oc57n,49899,"[""video/yes_line_10_1cut.mp4""]",1,yes_1,video/yes_line_10_1cut.mp4,"2022-01-24 06:01:53",76.219.107.229,"Mozilla/5.0 (X11; Linux x86_64) AppleWebKit/537.36 (KHTML, like Gecko) Chrome/91.0.4472.77 Safari/537.36",WebKit,Chrome,91.0.4472.77,Linux,,4d5ed8b1f2f00df59eccea4670b22524
82,1,"""","""","""","""","""",video-button-response,23,639387,0.0-23.0,skm3oc57n,35293,"[""video/yes_line_8_1cut.mp4""]",0,yes_1,video/yes_line_8_1cut.mp4,"2022-01-24 06:01:53",76.219.107.229,"Mozilla/5.0 (X11; Linux x86_64) AppleWebKit/537.36 (KHTML, like Gecko) Chrome/91.0.4472.77 Safari/537.36",WebKit,Chrome,91.0.4472.77,Linux,,4d5ed8b1f2f00df59eccea4670b22524
82,1,"""","""","""","""","""",video-button-response,24,658763,0.0-24.0,skm3oc57n,19372,"[""video/no_line_1_1cut.mp4""]",1,no_1,video/no_line_1_1cut.mp4,"2022-01-24 06:01:53",76.219.107.229,"Mozilla/5.0 (X11; Linux x86_64) AppleWebKit/537.36 (KHTML, like Gecko) Chrome/91.0.4472.77 Safari/537.36",WebKit,Chrome,91.0.4472.77,Linux,,4d5ed8b1f2f00df59eccea4670b22524
82,1,"""","""","""","""","""",video-button-response,25,680876,0.0-25.0,skm3oc57n,22106,"[""video/yes_line_9_1cut.mp4""]",1,yes_1,video/yes_line_9_1cut.mp4,"2022-01-24 06:01:53",76.219.107.229,"Mozilla/5.0 (X11; Linux x86_64) AppleWebKit/537.36 (KHTML, like Gecko) Chrome/91.0.4472.77 Safari/537.36",WebKit,Chrome,91.0.4472.77,Linux,,4d5ed8b1f2f00df59eccea4670b22524
82,1,"""","""","""","""","""",video-button-response,26,699508,0.0-26.0,skm3oc57n,18622,"[""video/no_line_3_1cut.mp4""]",1,no_1,video/no_line_3_1cut.mp4,"2022-01-24 06:01:53",76.219.107.229,"Mozilla/5.0 (X11; Linux x86_64) AppleWebKit/537.36 (KHTML, like Gecko) Chrome/91.0.4472.77 Safari/537.36",WebKit,Chrome,91.0.4472.77,Linux,,4d5ed8b1f2f00df59eccea4670b22524
82,1,"""","""","""","""","""",survey-html-form,27,712197,0.0-27.0,skm3oc57n,12682,"""","[{""name"":""understand"",""value"":""yes""},{""name"":""problems"",""value"":""No""},{""name"":""age"",""value"":""33""},{""name"":""gender"",""value"":""male""},{""name"":""comments"",""value"":""None""}]",debrief,"""","2022-01-24 06:01:53",76.219.107.229,"Mozilla/5.0 (X11; Linux x86_64) AppleWebKit/537.36 (KHTML, like Gecko) Chrome/91.0.4472.77 Safari/537.36",WebKit,Chrome,91.0.4472.77,Linux,,4d5ed8b1f2f00df59eccea4670b22524
82,1,"""","""","""","""","""",html-keyboard-response,28,724907,0.0-28.0,skm3oc57n,12699,"<div style=""font-size:20px;"">This task is now over. The completion code is: skm3oc57n You must press space after you have the completion code to finish. Thank you for your participation! </div>"," ","""","""","2022-01-24 06:01:53",76.219.107.229,"Mozilla/5.0 (X11; Linux x86_64) AppleWebKit/537.36 (KHTML, like Gecko) Chrome/91.0.4472.77 Safari/537.36",WebKit,Chrome,91.0.4472.77,Linux,,4d5ed8b1f2f00df59eccea4670b22524
