run_id,condition,success,timeout,failed_images,failed_audio,failed_video,trial_type,trial_index,time_elapsed,internal_node_id,ID,rt,stimulus,response,trial_category,stimulus_name,recorded_at,ip,user_agent,device,browser,browser_version,platform,platform_version,source_code_version
36,1,true,false,[],[],[],preload,0,18213,0.0-0.0,m9ywm9996,"""","""","""","""","""","2022-01-24 04:18:51",208.124.113.102,"Mozilla/5.0 (Windows NT 10.0; Win64; x64) AppleWebKit/537.36 (KHTML, like Gecko) Chrome/97.0.4692.99 Safari/537.36",WebKit,Chrome,97.0.4692.99,Windows,10.0,4d5ed8b1f2f00df59eccea4670b22524
36,1,"""","""","""","""","""",html-keyboard-response,1,24273,0.0-1.0,m9ywm9996,6055,"<p style=""text-align:center;width:700px;""> Welcome to the experiment! This study takes most people around 20 minutes to complete. Please complete it in one sitting.</p>"," ","""","""","2022-01-24 04:18:51",208.124.113.102,"Mozilla/5.0 (Windows NT 10.0; Win64; x64) AppleWebKit/537.36 (KHTML, like Gecko) Chrome/97.0.4692.99 Safari/537.36",WebKit,Chrome,97.0.4692.99,Windows,10.0,4d5ed8b1f2f00df59eccea4670b22524
36,1,"""","""","""","""","""",html-keyboard-response,2,64908,0.0-2.0,m9ywm9996,40634,"<p style = ""font-size:16px;"">MIT Computational Cognitive Science Lab</p><h4>Press the 'y' key to consent.</h4><div style = ""background-color:#f2f2f2;""><h3>Informed Consent Form</h3><div style=""text-align:left;width:700px;""><p style = ""font-size:16px;"">In this HIT, you will be asked to read a set of instructions that describe a particular scenario, and you will then be asked to perform a simple task relating to that scenario. There will also be comprehension and attention checks. Participants who do not answer these checks correctly cannot be approved. In order to get credit for this HIT, you must read all the questions fully and answer honestly. You may only complete this HIT once. If you complete this HIT multiple times, you will be rejected.</p><p style = ""font-size:16px;"">This HIT is part of a MIT scientific research project. Your decision to complete this HIT is voluntary. There is no way for us to identify you. The only information we will have, in addition to your responses, is the time at which you completed the survey. The results of the research may be presented at scientific meetings or published in scientific journals. Pressing the ""Y"" key indicates that you are at least 18 years of age, and agree to complete this HIT voluntarily. Press the ""Y"" key to confirm your agreement and continue.</p></div>",y,"""","""","2022-01-24 04:18:51",208.124.113.102,"Mozilla/5.0 (Windows NT 10.0; Win64; x64) AppleWebKit/537.36 (KHTML, like Gecko) Chrome/97.0.4692.99 Safari/537.36",WebKit,Chrome,97.0.4692.99,Windows,10.0,4d5ed8b1f2f00df59eccea4670b22524
36,1,"""","""","""","""","""",survey-text,3,208407,0.0-3.0,m9ywm9996,143490,"""","{""instructions1"":""To collect water and bring it to wooden storage buckets to gain levels and earn points. ""}",instructions,"""","2022-01-24 04:18:51",208.124.113.102,"Mozilla/5.0 (Windows NT 10.0; Win64; x64) AppleWebKit/537.36 (KHTML, like Gecko) Chrome/97.0.4692.99 Safari/537.36",WebKit,Chrome,97.0.4692.99,Windows,10.0,4d5ed8b1f2f00df59eccea4670b22524
36,1,"""","""","""","""","""",survey-text,4,306807,0.0-4.0,m9ywm9996,98391,"""","{""instructions2"":""When all 8 people collect water and store it in a wooden storage bucket. ""}",instructions,"""","2022-01-24 04:18:51",208.124.113.102,"Mozilla/5.0 (Windows NT 10.0; Win64; x64) AppleWebKit/537.36 (KHTML, like Gecko) Chrome/97.0.4692.99 Safari/537.36",WebKit,Chrome,97.0.4692.99,Windows,10.0,4d5ed8b1f2f00df59eccea4670b22524
36,1,"""","""","""","""","""",survey-text,5,372935,0.0-5.0,m9ywm9996,66123,"""","{""instructions3"":""1""}",instructions,"""","2022-01-24 04:18:51",208.124.113.102,"Mozilla/5.0 (Windows NT 10.0; Win64; x64) AppleWebKit/537.36 (KHTML, like Gecko) Chrome/97.0.4692.99 Safari/537.36",WebKit,Chrome,97.0.4692.99,Windows,10.0,4d5ed8b1f2f00df59eccea4670b22524
36,1,"""","""","""","""","""",video-button-response,6,431847,0.0-6.0,m9ywm9996,58909,"[""video/yes_line_9_1cut.mp4""]",0,yes_1,video/yes_line_9_1cut.mp4,"2022-01-24 04:18:51",208.124.113.102,"Mozilla/5.0 (Windows NT 10.0; Win64; x64) AppleWebKit/537.36 (KHTML, like Gecko) Chrome/97.0.4692.99 Safari/537.36",WebKit,Chrome,97.0.4692.99,Windows,10.0,4d5ed8b1f2f00df59eccea4670b22524
36,1,"""","""","""","""","""",video-button-response,7,521935,0.0-7.0,m9ywm9996,90084,"[""video/yes_line_10_8cut.mp4""]",1,yes_8,video/yes_line_10_8cut.mp4,"2022-01-24 04:18:51",208.124.113.102,"Mozilla/5.0 (Windows NT 10.0; Win64; x64) AppleWebKit/537.36 (KHTML, like Gecko) Chrome/97.0.4692.99 Safari/537.36",WebKit,Chrome,97.0.4692.99,Windows,10.0,4d5ed8b1f2f00df59eccea4670b22524
36,1,"""","""","""","""","""",video-button-response,8,553872,0.0-8.0,m9ywm9996,31933,"[""video/no_line_2_4cut.mp4""]",1,no_34,video/no_line_2_4cut.mp4,"2022-01-24 04:18:51",208.124.113.102,"Mozilla/5.0 (Windows NT 10.0; Win64; x64) AppleWebKit/537.36 (KHTML, like Gecko) Chrome/97.0.4692.99 Safari/537.36",WebKit,Chrome,97.0.4692.99,Windows,10.0,4d5ed8b1f2f00df59eccea4670b22524
36,1,"""","""","""","""","""",video-button-response,9,605688,0.0-9.0,m9ywm9996,51812,"[""video/yes_line_9_3cut.mp4""]",1,yes_34,video/yes_line_9_3cut.mp4,"2022-01-24 04:18:51",208.124.113.102,"Mozilla/5.0 (Windows NT 10.0; Win64; x64) AppleWebKit/537.36 (KHTML, like Gecko) Chrome/97.0.4692.99 Safari/537.36",WebKit,Chrome,97.0.4692.99,Windows,10.0,4d5ed8b1f2f00df59eccea4670b22524
36,1,"""","""","""","""","""",video-button-response,10,630824,0.0-10.0,m9ywm9996,25134,"[""video/no_line_1_8cut.mp4""]",1,no_8,video/no_line_1_8cut.mp4,"2022-01-24 04:18:51",208.124.113.102,"Mozilla/5.0 (Windows NT 10.0; Win64; x64) AppleWebKit/537.36 (KHTML, like Gecko) Chrome/97.0.4692.99 Safari/537.36",WebKit,Chrome,97.0.4692.99,Windows,10.0,4d5ed8b1f2f00df59eccea4670b22524
36,1,"""","""","""","""","""",video-button-response,11,692807,0.0-11.0,m9ywm9996,61980,"[""video/yes_line_10_3cut.mp4""]",0,yes_34,video/yes_line_10_3cut.mp4,"2022-01-24 04:18:51",208.124.113.102,"Mozilla/5.0 (Windows NT 10.0; Win64; x64) AppleWebKit/537.36 (KHTML, like Gecko) Chrome/97.0.4692.99 Safari/537.36",WebKit,Chrome,97.0.4692.99,Windows,10.0,4d5ed8b1f2f00df59eccea4670b22524
36,1,"""","""","""","""","""",video-button-response,12,717695,0.0-12.0,m9ywm9996,24886,"[""video/no_line_2_8cut.mp4""]",1,no_8,video/no_line_2_8cut.mp4,"2022-01-24 04:18:51",208.124.113.102,"Mozilla/5.0 (Windows NT 10.0; Win64; x64) AppleWebKit/537.36 (KHTML, like Gecko) Chrome/97.0.4692.99 Safari/537.36",WebKit,Chrome,97.0.4692.99,Windows,10.0,4d5ed8b1f2f00df59eccea4670b22524
36,1,"""","""","""","""","""",video-button-response,13,760023,0.0-13.0,m9ywm9996,42324,"[""video/yes_line_7_8cut.mp4""]",1,yes_8,video/yes_line_7_8cut.mp4,"2022-01-24 04:18:51",208.124.113.102,"Mozilla/5.0 (Windows NT 10.0; Win64; x64) AppleWebKit/537.36 (KHTML, like Gecko) Chrome/97.0.4692.99 Safari/537.36",WebKit,Chrome,97.0.4692.99,Windows,10.0,4d5ed8b1f2f00df59eccea4670b22524
36,1,"""","""","""","""","""",video-button-response,14,778815,0.0-14.0,m9ywm9996,18790,"[""video/no_line_1_1cut.mp4""]",1,no_1,video/no_line_1_1cut.mp4,"2022-01-24 04:18:51",208.124.113.102,"Mozilla/5.0 (Windows NT 10.0; Win64; x64) AppleWebKit/537.36 (KHTML, like Gecko) Chrome/97.0.4692.99 Safari/537.36",WebKit,Chrome,97.0.4692.99,Windows,10.0,4d5ed8b1f2f00df59eccea4670b22524
36,1,"""","""","""","""","""",video-button-response,15,809048,0.0-15.0,m9ywm9996,30229,"[""video/yes_line_7_1cut.mp4""]",0,yes_1,video/yes_line_7_1cut.mp4,"2022-01-24 04:18:51",208.124.113.102,"Mozilla/5.0 (Windows NT 10.0; Win64; x64) AppleWebKit/537.36 (KHTML, like Gecko) Chrome/97.0.4692.99 Safari/537.36",WebKit,Chrome,97.0.4692.99,Windows,10.0,4d5ed8b1f2f00df59eccea4670b22524
36,1,"""","""","""","""","""",video-button-response,16,857928,0.0-16.0,m9ywm9996,48878,"[""video/yes_line_10_1cut.mp4""]",0,yes_1,video/yes_line_10_1cut.mp4,"2022-01-24 04:18:51",208.124.113.102,"Mozilla/5.0 (Windows NT 10.0; Win64; x64) AppleWebKit/537.36 (KHTML, like Gecko) Chrome/97.0.4692.99 Safari/537.36",WebKit,Chrome,97.0.4692.99,Windows,10.0,4d5ed8b1f2f00df59eccea4670b22524
36,1,"""","""","""","""","""",video-button-response,17,890168,0.0-17.0,m9ywm9996,32237,"[""video/no_line_3_3cut.mp4""]",1,no_34,video/no_line_3_3cut.mp4,"2022-01-24 04:18:51",208.124.113.102,"Mozilla/5.0 (Windows NT 10.0; Win64; x64) AppleWebKit/537.36 (KHTML, like Gecko) Chrome/97.0.4692.99 Safari/537.36",WebKit,Chrome,97.0.4692.99,Windows,10.0,4d5ed8b1f2f00df59eccea4670b22524
36,1,"""","""","""","""","""",video-button-response,18,932472,0.0-18.0,m9ywm9996,42302,"[""video/yes_line_8_3cut.mp4""]",1,yes_34,video/yes_line_8_3cut.mp4,"2022-01-24 04:18:51",208.124.113.102,"Mozilla/5.0 (Windows NT 10.0; Win64; x64) AppleWebKit/537.36 (KHTML, like Gecko) Chrome/97.0.4692.99 Safari/537.36",WebKit,Chrome,97.0.4692.99,Windows,10.0,4d5ed8b1f2f00df59eccea4670b22524
36,1,"""","""","""","""","""",video-button-response,19,955496,0.0-19.0,m9ywm9996,23021,"[""video/no_line_1_3cut.mp4""]",1,no_34,video/no_line_1_3cut.mp4,"2022-01-24 04:18:51",208.124.113.102,"Mozilla/5.0 (Windows NT 10.0; Win64; x64) AppleWebKit/537.36 (KHTML, like Gecko) Chrome/97.0.4692.99 Safari/537.36",WebKit,Chrome,97.0.4692.99,Windows,10.0,4d5ed8b1f2f00df59eccea4670b22524
36,1,"""","""","""","""","""",video-button-response,20,1006567,0.0-20.0,m9ywm9996,51070,"[""video/yes_line_8_8cut.mp4""]",0,yes_8,video/yes_line_8_8cut.mp4,"2022-01-24 04:18:51",208.124.113.102,"Mozilla/5.0 (Windows NT 10.0; Win64; x64) AppleWebKit/537.36 (KHTML, like Gecko) Chrome/97.0.4692.99 Safari/537.36",WebKit,Chrome,97.0.4692.99,Windows,10.0,4d5ed8b1f2f00df59eccea4670b22524
36,1,"""","""","""","""","""",video-button-response,21,1038823,0.0-21.0,m9ywm9996,32252,"[""video/no_line_3_1cut.mp4""]",1,no_1,video/no_line_3_1cut.mp4,"2022-01-24 04:18:51",208.124.113.102,"Mozilla/5.0 (Windows NT 10.0; Win64; x64) AppleWebKit/537.36 (KHTML, like Gecko) Chrome/97.0.4692.99 Safari/537.36",WebKit,Chrome,97.0.4692.99,Windows,10.0,4d5ed8b1f2f00df59eccea4670b22524
36,1,"""","""","""","""","""",video-button-response,22,1073600,0.0-22.0,m9ywm9996,34774,"[""video/yes_line_8_1cut.mp4""]",0,yes_1,video/yes_line_8_1cut.mp4,"2022-01-24 04:18:51",208.124.113.102,"Mozilla/5.0 (Windows NT 10.0; Win64; x64) AppleWebKit/537.36 (KHTML, like Gecko) Chrome/97.0.4692.99 Safari/537.36",WebKit,Chrome,97.0.4692.99,Windows,10.0,4d5ed8b1f2f00df59eccea4670b22524
36,1,"""","""","""","""","""",video-button-response,23,1122240,0.0-23.0,m9ywm9996,48636,"[""video/yes_line_7_4cut.mp4""]",1,yes_34,video/yes_line_7_4cut.mp4,"2022-01-24 04:18:51",208.124.113.102,"Mozilla/5.0 (Windows NT 10.0; Win64; x64) AppleWebKit/537.36 (KHTML, like Gecko) Chrome/97.0.4692.99 Safari/537.36",WebKit,Chrome,97.0.4692.99,Windows,10.0,4d5ed8b1f2f00df59eccea4670b22524
36,1,"""","""","""","""","""",video-button-response,24,1149392,0.0-24.0,m9ywm9996,27150,"[""video/no_line_3_8cut.mp4""]",1,no_8,video/no_line_3_8cut.mp4,"2022-01-24 04:18:51",208.124.113.102,"Mozilla/5.0 (Windows NT 10.0; Win64; x64) AppleWebKit/537.36 (KHTML, like Gecko) Chrome/97.0.4692.99 Safari/537.36",WebKit,Chrome,97.0.4692.99,Windows,10.0,4d5ed8b1f2f00df59eccea4670b22524
36,1,"""","""","""","""","""",video-button-response,25,1221703,0.0-25.0,m9ywm9996,72308,"[""video/yes_line_9_8cut.mp4""]",0,yes_8,video/yes_line_9_8cut.mp4,"2022-01-24 04:18:51",208.124.113.102,"Mozilla/5.0 (Windows NT 10.0; Win64; x64) AppleWebKit/537.36 (KHTML, like Gecko) Chrome/97.0.4692.99 Safari/537.36",WebKit,Chrome,97.0.4692.99,Windows,10.0,4d5ed8b1f2f00df59eccea4670b22524
36,1,"""","""","""","""","""",video-button-response,26,1246928,0.0-26.0,m9ywm9996,25222,"[""video/no_line_2_1cut.mp4""]",1,no_1,video/no_line_2_1cut.mp4,"2022-01-24 04:18:51",208.124.113.102,"Mozilla/5.0 (Windows NT 10.0; Win64; x64) AppleWebKit/537.36 (KHTML, like Gecko) Chrome/97.0.4692.99 Safari/537.36",WebKit,Chrome,97.0.4692.99,Windows,10.0,4d5ed8b1f2f00df59eccea4670b22524
36,1,"""","""","""","""","""",survey-html-form,27,1384529,0.0-27.0,m9ywm9996,137598,"""","[{""name"":""understand"",""value"":""yes""},{""name"":""problems"",""value"":""No""},{""name"":""age"",""value"":""37""},{""name"":""gender"",""value"":""male""},{""name"":""comments"",""value"":""There were a few games I found pretty funny when the character was acting extremely \"morally unacceptable\".""}]",debrief,"""","2022-01-24 04:18:51",208.124.113.102,"Mozilla/5.0 (Windows NT 10.0; Win64; x64) AppleWebKit/537.36 (KHTML, like Gecko) Chrome/97.0.4692.99 Safari/537.36",WebKit,Chrome,97.0.4692.99,Windows,10.0,4d5ed8b1f2f00df59eccea4670b22524
36,1,"""","""","""","""","""",html-keyboard-response,28,1396521,0.0-28.0,m9ywm9996,11990,"<div style=""font-size:20px;"">This task is now over. The completion code is: m9ywm9996 You must press space after you have the completion code to finish. Thank you for your participation! </div>"," ","""","""","2022-01-24 04:18:51",208.124.113.102,"Mozilla/5.0 (Windows NT 10.0; Win64; x64) AppleWebKit/537.36 (KHTML, like Gecko) Chrome/97.0.4692.99 Safari/537.36",WebKit,Chrome,97.0.4692.99,Windows,10.0,4d5ed8b1f2f00df59eccea4670b22524
