run_id,condition,success,timeout,failed_images,failed_audio,failed_video,trial_type,trial_index,time_elapsed,internal_node_id,ID,rt,stimulus,response,trial_category,stimulus_name,recorded_at,ip,user_agent,device,browser,browser_version,platform,platform_version,source_code_version
37,1,true,false,[],[],[],preload,0,2031,0.0-0.0,hwzuynrxc,"""","""","""","""","""","2022-01-24 04:19:23",96.11.217.118,"Mozilla/5.0 (Windows NT 10.0; Win64; x64; rv:95.0) Gecko/20100101 Firefox/95.0",,Firefox,95.0,Windows,10.0,4d5ed8b1f2f00df59eccea4670b22524
37,1,"""","""","""","""","""",html-keyboard-response,1,19663,0.0-1.0,hwzuynrxc,17628,"<p style=""text-align:center;width:700px;""> Welcome to the experiment! This study takes most people around 20 minutes to complete. Please complete it in one sitting.</p>"," ","""","""","2022-01-24 04:19:23",96.11.217.118,"Mozilla/5.0 (Windows NT 10.0; Win64; x64; rv:95.0) Gecko/20100101 Firefox/95.0",,Firefox,95.0,Windows,10.0,4d5ed8b1f2f00df59eccea4670b22524
37,1,"""","""","""","""","""",html-keyboard-response,2,21751,0.0-2.0,hwzuynrxc,2085,"<p style = ""font-size:16px;"">MIT Computational Cognitive Science Lab</p><h4>Press the 'y' key to consent.</h4><div style = ""background-color:#f2f2f2;""><h3>Informed Consent Form</h3><div style=""text-align:left;width:700px;""><p style = ""font-size:16px;"">In this HIT, you will be asked to read a set of instructions that describe a particular scenario, and you will then be asked to perform a simple task relating to that scenario. There will also be comprehension and attention checks. Participants who do not answer these checks correctly cannot be approved. In order to get credit for this HIT, you must read all the questions fully and answer honestly. You may only complete this HIT once. If you complete this HIT multiple times, you will be rejected.</p><p style = ""font-size:16px;"">This HIT is part of a MIT scientific research project. Your decision to complete this HIT is voluntary. There is no way for us to identify you. The only information we will have, in addition to your responses, is the time at which you completed the survey. The results of the research may be presented at scientific meetings or published in scientific journals. Pressing the ""Y"" key indicates that you are at least 18 years of age, and agree to complete this HIT voluntarily. Press the ""Y"" key to confirm your agreement and continue.</p></div>",y,"""","""","2022-01-24 04:19:23",96.11.217.118,"Mozilla/5.0 (Windows NT 10.0; Win64; x64; rv:95.0) Gecko/20100101 Firefox/95.0",,Firefox,95.0,Windows,10.0,4d5ed8b1f2f00df59eccea4670b22524
37,1,"""","""","""","""","""",survey-text,3,69850,0.0-3.0,hwzuynrxc,48069,"""","{""instructions1"":""They need to collect a bucket of water the fastest ""}",instructions,"""","2022-01-24 04:19:23",96.11.217.118,"Mozilla/5.0 (Windows NT 10.0; Win64; x64; rv:95.0) Gecko/20100101 Firefox/95.0",,Firefox,95.0,Windows,10.0,4d5ed8b1f2f00df59eccea4670b22524
37,1,"""","""","""","""","""",survey-text,4,266499,0.0-4.0,hwzuynrxc,196630,"""","{""instructions2"":""When 8 people have collected water and store it in the storage bucket""}",instructions,"""","2022-01-24 04:19:23",96.11.217.118,"Mozilla/5.0 (Windows NT 10.0; Win64; x64; rv:95.0) Gecko/20100101 Firefox/95.0",,Firefox,95.0,Windows,10.0,4d5ed8b1f2f00df59eccea4670b22524
37,1,"""","""","""","""","""",survey-text,5,416211,0.0-5.0,hwzuynrxc,149702,"""","{""instructions3"":""One person""}",instructions,"""","2022-01-24 04:19:23",96.11.217.118,"Mozilla/5.0 (Windows NT 10.0; Win64; x64; rv:95.0) Gecko/20100101 Firefox/95.0",,Firefox,95.0,Windows,10.0,4d5ed8b1f2f00df59eccea4670b22524
37,1,"""","""","""","""","""",video-button-response,6,470236,0.0-6.0,hwzuynrxc,54003,"[""video/yes_line_10_1cut.mp4""]",1,yes_1,video/yes_line_10_1cut.mp4,"2022-01-24 04:19:23",96.11.217.118,"Mozilla/5.0 (Windows NT 10.0; Win64; x64; rv:95.0) Gecko/20100101 Firefox/95.0",,Firefox,95.0,Windows,10.0,4d5ed8b1f2f00df59eccea4670b22524
37,1,"""","""","""","""","""",video-button-response,7,493770,0.0-7.0,hwzuynrxc,23516,"[""video/yes_line_9_1cut.mp4""]",1,yes_1,video/yes_line_9_1cut.mp4,"2022-01-24 04:19:23",96.11.217.118,"Mozilla/5.0 (Windows NT 10.0; Win64; x64; rv:95.0) Gecko/20100101 Firefox/95.0",,Firefox,95.0,Windows,10.0,4d5ed8b1f2f00df59eccea4670b22524
37,1,"""","""","""","""","""",video-button-response,8,509851,0.0-8.0,hwzuynrxc,16067,"[""video/no_line_3_3cut.mp4""]",1,no_34,video/no_line_3_3cut.mp4,"2022-01-24 04:19:23",96.11.217.118,"Mozilla/5.0 (Windows NT 10.0; Win64; x64; rv:95.0) Gecko/20100101 Firefox/95.0",,Firefox,95.0,Windows,10.0,4d5ed8b1f2f00df59eccea4670b22524
37,1,"""","""","""","""","""",video-button-response,9,544547,0.0-9.0,hwzuynrxc,34682,"[""video/yes_line_8_1cut.mp4""]",0,yes_1,video/yes_line_8_1cut.mp4,"2022-01-24 04:19:23",96.11.217.118,"Mozilla/5.0 (Windows NT 10.0; Win64; x64; rv:95.0) Gecko/20100101 Firefox/95.0",,Firefox,95.0,Windows,10.0,4d5ed8b1f2f00df59eccea4670b22524
37,1,"""","""","""","""","""",video-button-response,10,571339,0.0-10.0,hwzuynrxc,26780,"[""video/yes_line_7_8cut.mp4""]",1,yes_8,video/yes_line_7_8cut.mp4,"2022-01-24 04:19:23",96.11.217.118,"Mozilla/5.0 (Windows NT 10.0; Win64; x64; rv:95.0) Gecko/20100101 Firefox/95.0",,Firefox,95.0,Windows,10.0,4d5ed8b1f2f00df59eccea4670b22524
37,1,"""","""","""","""","""",video-button-response,11,587629,0.0-11.0,hwzuynrxc,16271,"[""video/no_line_3_8cut.mp4""]",1,no_8,video/no_line_3_8cut.mp4,"2022-01-24 04:19:23",96.11.217.118,"Mozilla/5.0 (Windows NT 10.0; Win64; x64; rv:95.0) Gecko/20100101 Firefox/95.0",,Firefox,95.0,Windows,10.0,4d5ed8b1f2f00df59eccea4670b22524
37,1,"""","""","""","""","""",video-button-response,12,609683,0.0-12.0,hwzuynrxc,22043,"[""video/yes_line_7_4cut.mp4""]",0,yes_34,video/yes_line_7_4cut.mp4,"2022-01-24 04:19:23",96.11.217.118,"Mozilla/5.0 (Windows NT 10.0; Win64; x64; rv:95.0) Gecko/20100101 Firefox/95.0",,Firefox,95.0,Windows,10.0,4d5ed8b1f2f00df59eccea4670b22524
37,1,"""","""","""","""","""",video-button-response,13,650579,0.0-13.0,hwzuynrxc,40879,"[""video/yes_line_8_3cut.mp4""]",1,yes_34,video/yes_line_8_3cut.mp4,"2022-01-24 04:19:23",96.11.217.118,"Mozilla/5.0 (Windows NT 10.0; Win64; x64; rv:95.0) Gecko/20100101 Firefox/95.0",,Firefox,95.0,Windows,10.0,4d5ed8b1f2f00df59eccea4670b22524
37,1,"""","""","""","""","""",video-button-response,14,668387,0.0-14.0,hwzuynrxc,17794,"[""video/no_line_2_1cut.mp4""]",1,no_1,video/no_line_2_1cut.mp4,"2022-01-24 04:19:23",96.11.217.118,"Mozilla/5.0 (Windows NT 10.0; Win64; x64; rv:95.0) Gecko/20100101 Firefox/95.0",,Firefox,95.0,Windows,10.0,4d5ed8b1f2f00df59eccea4670b22524
37,1,"""","""","""","""","""",video-button-response,15,704795,0.0-15.0,hwzuynrxc,36388,"[""video/yes_line_9_8cut.mp4""]",1,yes_8,video/yes_line_9_8cut.mp4,"2022-01-24 04:19:23",96.11.217.118,"Mozilla/5.0 (Windows NT 10.0; Win64; x64; rv:95.0) Gecko/20100101 Firefox/95.0",,Firefox,95.0,Windows,10.0,4d5ed8b1f2f00df59eccea4670b22524
37,1,"""","""","""","""","""",video-button-response,16,733747,0.0-16.0,hwzuynrxc,28943,"[""video/yes_line_7_1cut.mp4""]",0,yes_1,video/yes_line_7_1cut.mp4,"2022-01-24 04:19:23",96.11.217.118,"Mozilla/5.0 (Windows NT 10.0; Win64; x64; rv:95.0) Gecko/20100101 Firefox/95.0",,Firefox,95.0,Windows,10.0,4d5ed8b1f2f00df59eccea4670b22524
37,1,"""","""","""","""","""",video-button-response,17,792628,0.0-17.0,hwzuynrxc,58861,"[""video/yes_line_8_8cut.mp4""]",1,yes_8,video/yes_line_8_8cut.mp4,"2022-01-24 04:19:23",96.11.217.118,"Mozilla/5.0 (Windows NT 10.0; Win64; x64; rv:95.0) Gecko/20100101 Firefox/95.0",,Firefox,95.0,Windows,10.0,4d5ed8b1f2f00df59eccea4670b22524
37,1,"""","""","""","""","""",video-button-response,18,808739,0.0-18.0,hwzuynrxc,16100,"[""video/no_line_1_8cut.mp4""]",1,no_8,video/no_line_1_8cut.mp4,"2022-01-24 04:19:23",96.11.217.118,"Mozilla/5.0 (Windows NT 10.0; Win64; x64; rv:95.0) Gecko/20100101 Firefox/95.0",,Firefox,95.0,Windows,10.0,4d5ed8b1f2f00df59eccea4670b22524
37,1,"""","""","""","""","""",video-button-response,19,835211,0.0-19.0,hwzuynrxc,26456,"[""video/no_line_2_4cut.mp4""]",1,no_34,video/no_line_2_4cut.mp4,"2022-01-24 04:19:23",96.11.217.118,"Mozilla/5.0 (Windows NT 10.0; Win64; x64; rv:95.0) Gecko/20100101 Firefox/95.0",,Firefox,95.0,Windows,10.0,4d5ed8b1f2f00df59eccea4670b22524
37,1,"""","""","""","""","""",video-button-response,20,853924,0.0-20.0,hwzuynrxc,18702,"[""video/no_line_3_1cut.mp4""]",1,no_1,video/no_line_3_1cut.mp4,"2022-01-24 04:19:23",96.11.217.118,"Mozilla/5.0 (Windows NT 10.0; Win64; x64; rv:95.0) Gecko/20100101 Firefox/95.0",,Firefox,95.0,Windows,10.0,4d5ed8b1f2f00df59eccea4670b22524
37,1,"""","""","""","""","""",video-button-response,21,899867,0.0-21.0,hwzuynrxc,45917,"[""video/yes_line_10_3cut.mp4""]",0,yes_34,video/yes_line_10_3cut.mp4,"2022-01-24 04:19:23",96.11.217.118,"Mozilla/5.0 (Windows NT 10.0; Win64; x64; rv:95.0) Gecko/20100101 Firefox/95.0",,Firefox,95.0,Windows,10.0,4d5ed8b1f2f00df59eccea4670b22524
37,1,"""","""","""","""","""",video-button-response,22,958452,0.0-22.0,hwzuynrxc,58574,"[""video/yes_line_10_8cut.mp4""]",0,yes_8,video/yes_line_10_8cut.mp4,"2022-01-24 04:19:23",96.11.217.118,"Mozilla/5.0 (Windows NT 10.0; Win64; x64; rv:95.0) Gecko/20100101 Firefox/95.0",,Firefox,95.0,Windows,10.0,4d5ed8b1f2f00df59eccea4670b22524
37,1,"""","""","""","""","""",video-button-response,23,982515,0.0-23.0,hwzuynrxc,24043,"[""video/no_line_1_1cut.mp4""]",1,no_1,video/no_line_1_1cut.mp4,"2022-01-24 04:19:23",96.11.217.118,"Mozilla/5.0 (Windows NT 10.0; Win64; x64; rv:95.0) Gecko/20100101 Firefox/95.0",,Firefox,95.0,Windows,10.0,4d5ed8b1f2f00df59eccea4670b22524
37,1,"""","""","""","""","""",video-button-response,24,1020180,0.0-24.0,hwzuynrxc,37653,"[""video/yes_line_9_3cut.mp4""]",1,yes_34,video/yes_line_9_3cut.mp4,"2022-01-24 04:19:23",96.11.217.118,"Mozilla/5.0 (Windows NT 10.0; Win64; x64; rv:95.0) Gecko/20100101 Firefox/95.0",,Firefox,95.0,Windows,10.0,4d5ed8b1f2f00df59eccea4670b22524
37,1,"""","""","""","""","""",video-button-response,25,1037299,0.0-25.0,hwzuynrxc,17102,"[""video/no_line_2_8cut.mp4""]",1,no_8,video/no_line_2_8cut.mp4,"2022-01-24 04:19:23",96.11.217.118,"Mozilla/5.0 (Windows NT 10.0; Win64; x64; rv:95.0) Gecko/20100101 Firefox/95.0",,Firefox,95.0,Windows,10.0,4d5ed8b1f2f00df59eccea4670b22524
37,1,"""","""","""","""","""",video-button-response,26,1056052,0.0-26.0,hwzuynrxc,18742,"[""video/no_line_1_3cut.mp4""]",1,no_34,video/no_line_1_3cut.mp4,"2022-01-24 04:19:23",96.11.217.118,"Mozilla/5.0 (Windows NT 10.0; Win64; x64; rv:95.0) Gecko/20100101 Firefox/95.0",,Firefox,95.0,Windows,10.0,4d5ed8b1f2f00df59eccea4670b22524
37,1,"""","""","""","""","""",survey-html-form,27,1081044,0.0-27.0,hwzuynrxc,24985,"""","[{""name"":""understand"",""value"":""yes""},{""name"":""problems"",""value"":""N/A""},{""name"":""age"",""value"":""44""},{""name"":""gender"",""value"":""female""},{""name"":""comments"",""value"":""}]",debrief,"""","2022-01-24 04:19:23",96.11.217.118,"Mozilla/5.0 (Windows NT 10.0; Win64; x64; rv:95.0) Gecko/20100101 Firefox/95.0",,Firefox,95.0,Windows,10.0,4d5ed8b1f2f00df59eccea4670b22524
37,1,"""","""","""","""","""",html-keyboard-response,28,1097797,0.0-28.0,hwzuynrxc,16745,"<div style=""font-size:20px;"">This task is now over. The completion code is: hwzuynrxc You must press space after you have the completion code to finish. Thank you for your participation! </div>"," ","""","""","2022-01-24 04:19:23",96.11.217.118,"Mozilla/5.0 (Windows NT 10.0; Win64; x64; rv:95.0) Gecko/20100101 Firefox/95.0",,Firefox,95.0,Windows,10.0,4d5ed8b1f2f00df59eccea4670b22524
