run_id,condition,success,timeout,failed_images,failed_audio,failed_video,trial_type,trial_index,time_elapsed,internal_node_id,ID,rt,stimulus,response,trial_category,stimulus_name,recorded_at,ip,user_agent,device,browser,browser_version,platform,platform_version,source_code_version
59,1,true,false,[],[],[],preload,0,671,0.0-0.0,qb0eevqqg,"""","""","""","""","""","2022-01-24 05:00:48",68.8.93.210,"Mozilla/5.0 (Windows NT 10.0; Win64; x64) AppleWebKit/537.36 (KHTML, like Gecko) Chrome/97.0.4692.71 Safari/537.36",WebKit,Chrome,97.0.4692.71,Windows,10.0,4d5ed8b1f2f00df59eccea4670b22524
59,1,"""","""","""","""","""",html-keyboard-response,1,4164,0.0-1.0,qb0eevqqg,3486,"<p style=""text-align:center;width:700px;""> Welcome to the experiment! This study takes most people around 20 minutes to complete. Please complete it in one sitting.</p>"," ","""","""","2022-01-24 05:00:48",68.8.93.210,"Mozilla/5.0 (Windows NT 10.0; Win64; x64) AppleWebKit/537.36 (KHTML, like Gecko) Chrome/97.0.4692.71 Safari/537.36",WebKit,Chrome,97.0.4692.71,Windows,10.0,4d5ed8b1f2f00df59eccea4670b22524
59,1,"""","""","""","""","""",html-keyboard-response,2,15269,0.0-2.0,qb0eevqqg,11102,"<p style = ""font-size:16px;"">MIT Computational Cognitive Science Lab</p><h4>Press the 'y' key to consent.</h4><div style = ""background-color:#f2f2f2;""><h3>Informed Consent Form</h3><div style=""text-align:left;width:700px;""><p style = ""font-size:16px;"">In this HIT, you will be asked to read a set of instructions that describe a particular scenario, and you will then be asked to perform a simple task relating to that scenario. There will also be comprehension and attention checks. Participants who do not answer these checks correctly cannot be approved. In order to get credit for this HIT, you must read all the questions fully and answer honestly. You may only complete this HIT once. If you complete this HIT multiple times, you will be rejected.</p><p style = ""font-size:16px;"">This HIT is part of a MIT scientific research project. Your decision to complete this HIT is voluntary. There is no way for us to identify you. The only information we will have, in addition to your responses, is the time at which you completed the survey. The results of the research may be presented at scientific meetings or published in scientific journals. Pressing the ""Y"" key indicates that you are at least 18 years of age, and agree to complete this HIT voluntarily. Press the ""Y"" key to confirm your agreement and continue.</p></div>",y,"""","""","2022-01-24 05:00:48",68.8.93.210,"Mozilla/5.0 (Windows NT 10.0; Win64; x64) AppleWebKit/537.36 (KHTML, like Gecko) Chrome/97.0.4692.71 Safari/537.36",WebKit,Chrome,97.0.4692.71,Windows,10.0,4d5ed8b1f2f00df59eccea4670b22524
59,1,"""","""","""","""","""",survey-text,3,53490,0.0-3.0,qb0eevqqg,38179,"""","{""instructions1"":""Collect one bucket of water for each level""}",instructions,"""","2022-01-24 05:00:48",68.8.93.210,"Mozilla/5.0 (Windows NT 10.0; Win64; x64) AppleWebKit/537.36 (KHTML, like Gecko) Chrome/97.0.4692.71 Safari/537.36",WebKit,Chrome,97.0.4692.71,Windows,10.0,4d5ed8b1f2f00df59eccea4670b22524
59,1,"""","""","""","""","""",survey-text,4,118539,0.0-4.0,qb0eevqqg,65034,"""","{""instructions2"":""when all 8 people collect and store water""}",instructions,"""","2022-01-24 05:00:48",68.8.93.210,"Mozilla/5.0 (Windows NT 10.0; Win64; x64) AppleWebKit/537.36 (KHTML, like Gecko) Chrome/97.0.4692.71 Safari/537.36",WebKit,Chrome,97.0.4692.71,Windows,10.0,4d5ed8b1f2f00df59eccea4670b22524
59,1,"""","""","""","""","""",survey-text,5,139567,0.0-5.0,qb0eevqqg,21020,"""","{""instructions3"":""1""}",instructions,"""","2022-01-24 05:00:48",68.8.93.210,"Mozilla/5.0 (Windows NT 10.0; Win64; x64) AppleWebKit/537.36 (KHTML, like Gecko) Chrome/97.0.4692.71 Safari/537.36",WebKit,Chrome,97.0.4692.71,Windows,10.0,4d5ed8b1f2f00df59eccea4670b22524
59,1,"""","""","""","""","""",video-button-response,6,205127,0.0-6.0,qb0eevqqg,65550,"[""video/yes_line_9_8cut.mp4""]",1,yes_8,video/yes_line_9_8cut.mp4,"2022-01-24 05:00:48",68.8.93.210,"Mozilla/5.0 (Windows NT 10.0; Win64; x64) AppleWebKit/537.36 (KHTML, like Gecko) Chrome/97.0.4692.71 Safari/537.36",WebKit,Chrome,97.0.4692.71,Windows,10.0,4d5ed8b1f2f00df59eccea4670b22524
59,1,"""","""","""","""","""",video-button-response,7,240754,0.0-7.0,qb0eevqqg,35621,"[""video/no_line_2_1cut.mp4""]",1,no_1,video/no_line_2_1cut.mp4,"2022-01-24 05:00:48",68.8.93.210,"Mozilla/5.0 (Windows NT 10.0; Win64; x64) AppleWebKit/537.36 (KHTML, like Gecko) Chrome/97.0.4692.71 Safari/537.36",WebKit,Chrome,97.0.4692.71,Windows,10.0,4d5ed8b1f2f00df59eccea4670b22524
59,1,"""","""","""","""","""",video-button-response,8,259398,0.0-8.0,qb0eevqqg,18641,"[""video/no_line_3_8cut.mp4""]",1,no_8,video/no_line_3_8cut.mp4,"2022-01-24 05:00:48",68.8.93.210,"Mozilla/5.0 (Windows NT 10.0; Win64; x64) AppleWebKit/537.36 (KHTML, like Gecko) Chrome/97.0.4692.71 Safari/537.36",WebKit,Chrome,97.0.4692.71,Windows,10.0,4d5ed8b1f2f00df59eccea4670b22524
59,1,"""","""","""","""","""",video-button-response,9,307778,0.0-9.0,qb0eevqqg,48373,"[""video/yes_line_10_1cut.mp4""]",0,yes_1,video/yes_line_10_1cut.mp4,"2022-01-24 05:00:48",68.8.93.210,"Mozilla/5.0 (Windows NT 10.0; Win64; x64) AppleWebKit/537.36 (KHTML, like Gecko) Chrome/97.0.4692.71 Safari/537.36",WebKit,Chrome,97.0.4692.71,Windows,10.0,4d5ed8b1f2f00df59eccea4670b22524
59,1,"""","""","""","""","""",video-button-response,10,334945,0.0-10.0,qb0eevqqg,27162,"[""video/yes_line_9_3cut.mp4""]",1,yes_34,video/yes_line_9_3cut.mp4,"2022-01-24 05:00:48",68.8.93.210,"Mozilla/5.0 (Windows NT 10.0; Win64; x64) AppleWebKit/537.36 (KHTML, like Gecko) Chrome/97.0.4692.71 Safari/537.36",WebKit,Chrome,97.0.4692.71,Windows,10.0,4d5ed8b1f2f00df59eccea4670b22524
59,1,"""","""","""","""","""",video-button-response,11,361990,0.0-11.0,qb0eevqqg,27027,"[""video/yes_line_9_1cut.mp4""]",1,yes_1,video/yes_line_9_1cut.mp4,"2022-01-24 05:00:48",68.8.93.210,"Mozilla/5.0 (Windows NT 10.0; Win64; x64) AppleWebKit/537.36 (KHTML, like Gecko) Chrome/97.0.4692.71 Safari/537.36",WebKit,Chrome,97.0.4692.71,Windows,10.0,4d5ed8b1f2f00df59eccea4670b22524
59,1,"""","""","""","""","""",video-button-response,12,403767,0.0-12.0,qb0eevqqg,41774,"[""video/yes_line_8_3cut.mp4""]",1,yes_34,video/yes_line_8_3cut.mp4,"2022-01-24 05:00:48",68.8.93.210,"Mozilla/5.0 (Windows NT 10.0; Win64; x64) AppleWebKit/537.36 (KHTML, like Gecko) Chrome/97.0.4692.71 Safari/537.36",WebKit,Chrome,97.0.4692.71,Windows,10.0,4d5ed8b1f2f00df59eccea4670b22524
59,1,"""","""","""","""","""",video-button-response,13,438434,0.0-13.0,qb0eevqqg,34660,"[""video/yes_line_7_4cut.mp4""]",1,yes_34,video/yes_line_7_4cut.mp4,"2022-01-24 05:00:48",68.8.93.210,"Mozilla/5.0 (Windows NT 10.0; Win64; x64) AppleWebKit/537.36 (KHTML, like Gecko) Chrome/97.0.4692.71 Safari/537.36",WebKit,Chrome,97.0.4692.71,Windows,10.0,4d5ed8b1f2f00df59eccea4670b22524
59,1,"""","""","""","""","""",video-button-response,14,495474,0.0-14.0,qb0eevqqg,57035,"[""video/yes_line_10_8cut.mp4""]",1,yes_8,video/yes_line_10_8cut.mp4,"2022-01-24 05:00:48",68.8.93.210,"Mozilla/5.0 (Windows NT 10.0; Win64; x64) AppleWebKit/537.36 (KHTML, like Gecko) Chrome/97.0.4692.71 Safari/537.36",WebKit,Chrome,97.0.4692.71,Windows,10.0,4d5ed8b1f2f00df59eccea4670b22524
59,1,"""","""","""","""","""",video-button-response,15,513119,0.0-15.0,qb0eevqqg,17640,"[""video/no_line_1_8cut.mp4""]",1,no_8,video/no_line_1_8cut.mp4,"2022-01-24 05:00:48",68.8.93.210,"Mozilla/5.0 (Windows NT 10.0; Win64; x64) AppleWebKit/537.36 (KHTML, like Gecko) Chrome/97.0.4692.71 Safari/537.36",WebKit,Chrome,97.0.4692.71,Windows,10.0,4d5ed8b1f2f00df59eccea4670b22524
59,1,"""","""","""","""","""",video-button-response,16,524386,0.0-16.0,qb0eevqqg,11263,"[""video/no_line_2_8cut.mp4""]",1,no_8,video/no_line_2_8cut.mp4,"2022-01-24 05:00:48",68.8.93.210,"Mozilla/5.0 (Windows NT 10.0; Win64; x64) AppleWebKit/537.36 (KHTML, like Gecko) Chrome/97.0.4692.71 Safari/537.36",WebKit,Chrome,97.0.4692.71,Windows,10.0,4d5ed8b1f2f00df59eccea4670b22524
59,1,"""","""","""","""","""",video-button-response,17,542730,0.0-17.0,qb0eevqqg,18339,"[""video/no_line_3_1cut.mp4""]",1,no_1,video/no_line_3_1cut.mp4,"2022-01-24 05:00:48",68.8.93.210,"Mozilla/5.0 (Windows NT 10.0; Win64; x64) AppleWebKit/537.36 (KHTML, like Gecko) Chrome/97.0.4692.71 Safari/537.36",WebKit,Chrome,97.0.4692.71,Windows,10.0,4d5ed8b1f2f00df59eccea4670b22524
59,1,"""","""","""","""","""",video-button-response,18,615031,0.0-18.0,qb0eevqqg,72298,"[""video/yes_line_10_3cut.mp4""]",1,yes_34,video/yes_line_10_3cut.mp4,"2022-01-24 05:00:48",68.8.93.210,"Mozilla/5.0 (Windows NT 10.0; Win64; x64) AppleWebKit/537.36 (KHTML, like Gecko) Chrome/97.0.4692.71 Safari/537.36",WebKit,Chrome,97.0.4692.71,Windows,10.0,4d5ed8b1f2f00df59eccea4670b22524
59,1,"""","""","""","""","""",video-button-response,19,650582,0.0-19.0,qb0eevqqg,35545,"[""video/yes_line_8_1cut.mp4""]",0,yes_1,video/yes_line_8_1cut.mp4,"2022-01-24 05:00:48",68.8.93.210,"Mozilla/5.0 (Windows NT 10.0; Win64; x64) AppleWebKit/537.36 (KHTML, like Gecko) Chrome/97.0.4692.71 Safari/537.36",WebKit,Chrome,97.0.4692.71,Windows,10.0,4d5ed8b1f2f00df59eccea4670b22524
59,1,"""","""","""","""","""",video-button-response,20,671337,0.0-20.0,qb0eevqqg,20751,"[""video/yes_line_7_1cut.mp4""]",0,yes_1,video/yes_line_7_1cut.mp4,"2022-01-24 05:00:48",68.8.93.210,"Mozilla/5.0 (Windows NT 10.0; Win64; x64) AppleWebKit/537.36 (KHTML, like Gecko) Chrome/97.0.4692.71 Safari/537.36",WebKit,Chrome,97.0.4692.71,Windows,10.0,4d5ed8b1f2f00df59eccea4670b22524
59,1,"""","""","""","""","""",video-button-response,21,690543,0.0-21.0,qb0eevqqg,19200,"[""video/no_line_1_1cut.mp4""]",1,no_1,video/no_line_1_1cut.mp4,"2022-01-24 05:00:48",68.8.93.210,"Mozilla/5.0 (Windows NT 10.0; Win64; x64) AppleWebKit/537.36 (KHTML, like Gecko) Chrome/97.0.4692.71 Safari/537.36",WebKit,Chrome,97.0.4692.71,Windows,10.0,4d5ed8b1f2f00df59eccea4670b22524
59,1,"""","""","""","""","""",video-button-response,22,708521,0.0-22.0,qb0eevqqg,17976,"[""video/no_line_1_3cut.mp4""]",1,no_34,video/no_line_1_3cut.mp4,"2022-01-24 05:00:48",68.8.93.210,"Mozilla/5.0 (Windows NT 10.0; Win64; x64) AppleWebKit/537.36 (KHTML, like Gecko) Chrome/97.0.4692.71 Safari/537.36",WebKit,Chrome,97.0.4692.71,Windows,10.0,4d5ed8b1f2f00df59eccea4670b22524
59,1,"""","""","""","""","""",video-button-response,23,767003,0.0-23.0,qb0eevqqg,58477,"[""video/yes_line_8_8cut.mp4""]",1,yes_8,video/yes_line_8_8cut.mp4,"2022-01-24 05:00:48",68.8.93.210,"Mozilla/5.0 (Windows NT 10.0; Win64; x64) AppleWebKit/537.36 (KHTML, like Gecko) Chrome/97.0.4692.71 Safari/537.36",WebKit,Chrome,97.0.4692.71,Windows,10.0,4d5ed8b1f2f00df59eccea4670b22524
59,1,"""","""","""","""","""",video-button-response,24,805226,0.0-24.0,qb0eevqqg,38219,"[""video/yes_line_7_8cut.mp4""]",1,yes_8,video/yes_line_7_8cut.mp4,"2022-01-24 05:00:48",68.8.93.210,"Mozilla/5.0 (Windows NT 10.0; Win64; x64) AppleWebKit/537.36 (KHTML, like Gecko) Chrome/97.0.4692.71 Safari/537.36",WebKit,Chrome,97.0.4692.71,Windows,10.0,4d5ed8b1f2f00df59eccea4670b22524
59,1,"""","""","""","""","""",video-button-response,25,822411,0.0-25.0,qb0eevqqg,17171,"[""video/no_line_2_4cut.mp4""]",1,no_34,video/no_line_2_4cut.mp4,"2022-01-24 05:00:48",68.8.93.210,"Mozilla/5.0 (Windows NT 10.0; Win64; x64) AppleWebKit/537.36 (KHTML, like Gecko) Chrome/97.0.4692.71 Safari/537.36",WebKit,Chrome,97.0.4692.71,Windows,10.0,4d5ed8b1f2f00df59eccea4670b22524
59,1,"""","""","""","""","""",video-button-response,26,838812,0.0-26.0,qb0eevqqg,16397,"[""video/no_line_3_3cut.mp4""]",1,no_34,video/no_line_3_3cut.mp4,"2022-01-24 05:00:48",68.8.93.210,"Mozilla/5.0 (Windows NT 10.0; Win64; x64) AppleWebKit/537.36 (KHTML, like Gecko) Chrome/97.0.4692.71 Safari/537.36",WebKit,Chrome,97.0.4692.71,Windows,10.0,4d5ed8b1f2f00df59eccea4670b22524
59,1,"""","""","""","""","""",survey-html-form,27,866726,0.0-27.0,qb0eevqqg,27909,"""","[{""name"":""understand"",""value"":""yes""},{""name"":""problems"",""value"":""I had no issues with the study.""},{""name"":""age"",""value"":""26""},{""name"":""gender"",""value"":""male""},{""name"":""comments"",""value"":""great pay for the task""}]",debrief,"""","2022-01-24 05:00:48",68.8.93.210,"Mozilla/5.0 (Windows NT 10.0; Win64; x64) AppleWebKit/537.36 (KHTML, like Gecko) Chrome/97.0.4692.71 Safari/537.36",WebKit,Chrome,97.0.4692.71,Windows,10.0,4d5ed8b1f2f00df59eccea4670b22524
59,1,"""","""","""","""","""",html-keyboard-response,28,881715,0.0-28.0,qb0eevqqg,14987,"<div style=""font-size:20px;"">This task is now over. The completion code is: qb0eevqqg You must press space after you have the completion code to finish. Thank you for your participation! </div>"," ","""","""","2022-01-24 05:00:48",68.8.93.210,"Mozilla/5.0 (Windows NT 10.0; Win64; x64) AppleWebKit/537.36 (KHTML, like Gecko) Chrome/97.0.4692.71 Safari/537.36",WebKit,Chrome,97.0.4692.71,Windows,10.0,4d5ed8b1f2f00df59eccea4670b22524
