run_id,condition,success,timeout,failed_images,failed_audio,failed_video,trial_type,trial_index,time_elapsed,internal_node_id,ID,rt,stimulus,response,trial_category,stimulus_name,recorded_at,ip,user_agent,device,browser,browser_version,platform,platform_version,source_code_version
16,1,true,false,[],[],[],preload,0,1085,0.0-0.0,dqx3ztnpg,"""","""","""","""","""","2022-01-24 04:08:21",68.129.58.86,"Mozilla/5.0 (Windows NT 10.0; Win64; x64) AppleWebKit/537.36 (KHTML, like Gecko) Chrome/97.0.4692.71 Safari/537.36",WebKit,Chrome,97.0.4692.71,Windows,10.0,4d5ed8b1f2f00df59eccea4670b22524
16,1,"""","""","""","""","""",html-keyboard-response,1,2721,0.0-1.0,dqx3ztnpg,1629,"<p style=""text-align:center;width:700px;""> Welcome to the experiment! This study takes most people around 20 minutes to complete. Please complete it in one sitting.</p>"," ","""","""","2022-01-24 04:08:21",68.129.58.86,"Mozilla/5.0 (Windows NT 10.0; Win64; x64) AppleWebKit/537.36 (KHTML, like Gecko) Chrome/97.0.4692.71 Safari/537.36",WebKit,Chrome,97.0.4692.71,Windows,10.0,4d5ed8b1f2f00df59eccea4670b22524
16,1,"""","""","""","""","""",html-keyboard-response,2,4817,0.0-2.0,dqx3ztnpg,2096,"<p style = ""font-size:16px;"">MIT Computational Cognitive Science Lab</p><h4>Press the 'y' key to consent.</h4><div style = ""background-color:#f2f2f2;""><h3>Informed Consent Form</h3><div style=""text-align:left;width:700px;""><p style = ""font-size:16px;"">In this HIT, you will be asked to read a set of instructions that describe a particular scenario, and you will then be asked to perform a simple task relating to that scenario. There will also be comprehension and attention checks. Participants who do not answer these checks correctly cannot be approved. In order to get credit for this HIT, you must read all the questions fully and answer honestly. You may only complete this HIT once. If you complete this HIT multiple times, you will be rejected.</p><p style = ""font-size:16px;"">This HIT is part of a MIT scientific research project. Your decision to complete this HIT is voluntary. There is no way for us to identify you. The only information we will have, in addition to your responses, is the time at which you completed the survey. The results of the research may be presented at scientific meetings or published in scientific journals. Pressing the ""Y"" key indicates that you are at least 18 years of age, and agree to complete this HIT voluntarily. Press the ""Y"" key to confirm your agreement and continue.</p></div>",y,"""","""","2022-01-24 04:08:21",68.129.58.86,"Mozilla/5.0 (Windows NT 10.0; Win64; x64) AppleWebKit/537.36 (KHTML, like Gecko) Chrome/97.0.4692.71 Safari/537.36",WebKit,Chrome,97.0.4692.71,Windows,10.0,4d5ed8b1f2f00df59eccea4670b22524
16,1,"""","""","""","""","""",survey-text,3,35486,0.0-3.0,dqx3ztnpg,30656,"""","{""instructions1"":""collect water from a water source and bring it back to the wooden storage buckets""}",instructions,"""","2022-01-24 04:08:21",68.129.58.86,"Mozilla/5.0 (Windows NT 10.0; Win64; x64) AppleWebKit/537.36 (KHTML, like Gecko) Chrome/97.0.4692.71 Safari/537.36",WebKit,Chrome,97.0.4692.71,Windows,10.0,4d5ed8b1f2f00df59eccea4670b22524
16,1,"""","""","""","""","""",survey-text,4,150955,0.0-4.0,dqx3ztnpg,115442,"""","{""instructions2"":""when all 8 people collect water and store it in a wooden storage bucket.""}",instructions,"""","2022-01-24 04:08:21",68.129.58.86,"Mozilla/5.0 (Windows NT 10.0; Win64; x64) AppleWebKit/537.36 (KHTML, like Gecko) Chrome/97.0.4692.71 Safari/537.36",WebKit,Chrome,97.0.4692.71,Windows,10.0,4d5ed8b1f2f00df59eccea4670b22524
16,1,"""","""","""","""","""",survey-text,5,176265,0.0-5.0,dqx3ztnpg,25303,"""","{""instructions3"":""8""}",instructions,"""","2022-01-24 04:08:21",68.129.58.86,"Mozilla/5.0 (Windows NT 10.0; Win64; x64) AppleWebKit/537.36 (KHTML, like Gecko) Chrome/97.0.4692.71 Safari/537.36",WebKit,Chrome,97.0.4692.71,Windows,10.0,4d5ed8b1f2f00df59eccea4670b22524
16,1,"""","""","""","""","""",video-button-response,6,198810,0.0-6.0,dqx3ztnpg,22538,"[""video/yes_line_7_1cut.mp4""]",1,yes_1,video/yes_line_7_1cut.mp4,"2022-01-24 04:08:21",68.129.58.86,"Mozilla/5.0 (Windows NT 10.0; Win64; x64) AppleWebKit/537.36 (KHTML, like Gecko) Chrome/97.0.4692.71 Safari/537.36",WebKit,Chrome,97.0.4692.71,Windows,10.0,4d5ed8b1f2f00df59eccea4670b22524
16,1,"""","""","""","""","""",video-button-response,7,256035,0.0-7.0,dqx3ztnpg,57215,"[""video/yes_line_10_1cut.mp4""]",0,yes_1,video/yes_line_10_1cut.mp4,"2022-01-24 04:08:21",68.129.58.86,"Mozilla/5.0 (Windows NT 10.0; Win64; x64) AppleWebKit/537.36 (KHTML, like Gecko) Chrome/97.0.4692.71 Safari/537.36",WebKit,Chrome,97.0.4692.71,Windows,10.0,4d5ed8b1f2f00df59eccea4670b22524
16,1,"""","""","""","""","""",video-button-response,8,284849,0.0-8.0,dqx3ztnpg,28808,"[""video/yes_line_9_3cut.mp4""]",1,yes_34,video/yes_line_9_3cut.mp4,"2022-01-24 04:08:21",68.129.58.86,"Mozilla/5.0 (Windows NT 10.0; Win64; x64) AppleWebKit/537.36 (KHTML, like Gecko) Chrome/97.0.4692.71 Safari/537.36",WebKit,Chrome,97.0.4692.71,Windows,10.0,4d5ed8b1f2f00df59eccea4670b22524
16,1,"""","""","""","""","""",video-button-response,9,377635,0.0-9.0,dqx3ztnpg,92789,"[""video/yes_line_10_8cut.mp4""]",0,yes_8,video/yes_line_10_8cut.mp4,"2022-01-24 04:08:21",68.129.58.86,"Mozilla/5.0 (Windows NT 10.0; Win64; x64) AppleWebKit/537.36 (KHTML, like Gecko) Chrome/97.0.4692.71 Safari/537.36",WebKit,Chrome,97.0.4692.71,Windows,10.0,4d5ed8b1f2f00df59eccea4670b22524
16,1,"""","""","""","""","""",video-button-response,10,534468,0.0-10.0,dqx3ztnpg,156824,"[""video/yes_line_10_3cut.mp4""]",0,yes_34,video/yes_line_10_3cut.mp4,"2022-01-24 04:08:21",68.129.58.86,"Mozilla/5.0 (Windows NT 10.0; Win64; x64) AppleWebKit/537.36 (KHTML, like Gecko) Chrome/97.0.4692.71 Safari/537.36",WebKit,Chrome,97.0.4692.71,Windows,10.0,4d5ed8b1f2f00df59eccea4670b22524
16,1,"""","""","""","""","""",video-button-response,11,552523,0.0-11.0,dqx3ztnpg,18051,"[""video/no_line_3_8cut.mp4""]",1,no_8,video/no_line_3_8cut.mp4,"2022-01-24 04:08:21",68.129.58.86,"Mozilla/5.0 (Windows NT 10.0; Win64; x64) AppleWebKit/537.36 (KHTML, like Gecko) Chrome/97.0.4692.71 Safari/537.36",WebKit,Chrome,97.0.4692.71,Windows,10.0,4d5ed8b1f2f00df59eccea4670b22524
16,1,"""","""","""","""","""",video-button-response,12,684779,0.0-12.0,dqx3ztnpg,132249,"[""video/yes_line_8_8cut.mp4""]",1,yes_8,video/yes_line_8_8cut.mp4,"2022-01-24 04:08:21",68.129.58.86,"Mozilla/5.0 (Windows NT 10.0; Win64; x64) AppleWebKit/537.36 (KHTML, like Gecko) Chrome/97.0.4692.71 Safari/537.36",WebKit,Chrome,97.0.4692.71,Windows,10.0,4d5ed8b1f2f00df59eccea4670b22524
16,1,"""","""","""","""","""",video-button-response,13,760474,0.0-13.0,dqx3ztnpg,75687,"[""video/yes_line_8_1cut.mp4""]",1,yes_1,video/yes_line_8_1cut.mp4,"2022-01-24 04:08:21",68.129.58.86,"Mozilla/5.0 (Windows NT 10.0; Win64; x64) AppleWebKit/537.36 (KHTML, like Gecko) Chrome/97.0.4692.71 Safari/537.36",WebKit,Chrome,97.0.4692.71,Windows,10.0,4d5ed8b1f2f00df59eccea4670b22524
16,1,"""","""","""","""","""",video-button-response,14,890697,0.0-14.0,dqx3ztnpg,130219,"[""video/no_line_1_8cut.mp4""]",1,no_8,video/no_line_1_8cut.mp4,"2022-01-24 04:08:21",68.129.58.86,"Mozilla/5.0 (Windows NT 10.0; Win64; x64) AppleWebKit/537.36 (KHTML, like Gecko) Chrome/97.0.4692.71 Safari/537.36",WebKit,Chrome,97.0.4692.71,Windows,10.0,4d5ed8b1f2f00df59eccea4670b22524
16,1,"""","""","""","""","""",video-button-response,15,1036159,0.0-15.0,dqx3ztnpg,145453,"[""video/yes_line_7_8cut.mp4""]",1,yes_8,video/yes_line_7_8cut.mp4,"2022-01-24 04:08:21",68.129.58.86,"Mozilla/5.0 (Windows NT 10.0; Win64; x64) AppleWebKit/537.36 (KHTML, like Gecko) Chrome/97.0.4692.71 Safari/537.36",WebKit,Chrome,97.0.4692.71,Windows,10.0,4d5ed8b1f2f00df59eccea4670b22524
16,1,"""","""","""","""","""",video-button-response,16,1070291,0.0-16.0,dqx3ztnpg,34125,"[""video/yes_line_7_4cut.mp4""]",1,yes_34,video/yes_line_7_4cut.mp4,"2022-01-24 04:08:21",68.129.58.86,"Mozilla/5.0 (Windows NT 10.0; Win64; x64) AppleWebKit/537.36 (KHTML, like Gecko) Chrome/97.0.4692.71 Safari/537.36",WebKit,Chrome,97.0.4692.71,Windows,10.0,4d5ed8b1f2f00df59eccea4670b22524
16,1,"""","""","""","""","""",video-button-response,17,1109452,0.0-17.0,dqx3ztnpg,39157,"[""video/no_line_2_1cut.mp4""]",1,no_1,video/no_line_2_1cut.mp4,"2022-01-24 04:08:21",68.129.58.86,"Mozilla/5.0 (Windows NT 10.0; Win64; x64) AppleWebKit/537.36 (KHTML, like Gecko) Chrome/97.0.4692.71 Safari/537.36",WebKit,Chrome,97.0.4692.71,Windows,10.0,4d5ed8b1f2f00df59eccea4670b22524
16,1,"""","""","""","""","""",video-button-response,18,1185166,0.0-18.0,dqx3ztnpg,75705,"[""video/yes_line_9_1cut.mp4""]",1,yes_1,video/yes_line_9_1cut.mp4,"2022-01-24 04:08:21",68.129.58.86,"Mozilla/5.0 (Windows NT 10.0; Win64; x64) AppleWebKit/537.36 (KHTML, like Gecko) Chrome/97.0.4692.71 Safari/537.36",WebKit,Chrome,97.0.4692.71,Windows,10.0,4d5ed8b1f2f00df59eccea4670b22524
16,1,"""","""","""","""","""",video-button-response,19,1200896,0.0-19.0,dqx3ztnpg,15726,"[""video/no_line_3_3cut.mp4""]",0,no_34,video/no_line_3_3cut.mp4,"2022-01-24 04:08:21",68.129.58.86,"Mozilla/5.0 (Windows NT 10.0; Win64; x64) AppleWebKit/537.36 (KHTML, like Gecko) Chrome/97.0.4692.71 Safari/537.36",WebKit,Chrome,97.0.4692.71,Windows,10.0,4d5ed8b1f2f00df59eccea4670b22524
16,1,"""","""","""","""","""",video-button-response,20,1231430,0.0-20.0,dqx3ztnpg,30526,"[""video/no_line_1_3cut.mp4""]",1,no_34,video/no_line_1_3cut.mp4,"2022-01-24 04:08:21",68.129.58.86,"Mozilla/5.0 (Windows NT 10.0; Win64; x64) AppleWebKit/537.36 (KHTML, like Gecko) Chrome/97.0.4692.71 Safari/537.36",WebKit,Chrome,97.0.4692.71,Windows,10.0,4d5ed8b1f2f00df59eccea4670b22524
16,1,"""","""","""","""","""",video-button-response,21,1267562,0.0-21.0,dqx3ztnpg,36127,"[""video/no_line_3_1cut.mp4""]",0,no_1,video/no_line_3_1cut.mp4,"2022-01-24 04:08:21",68.129.58.86,"Mozilla/5.0 (Windows NT 10.0; Win64; x64) AppleWebKit/537.36 (KHTML, like Gecko) Chrome/97.0.4692.71 Safari/537.36",WebKit,Chrome,97.0.4692.71,Windows,10.0,4d5ed8b1f2f00df59eccea4670b22524
16,1,"""","""","""","""","""",video-button-response,22,1286687,0.0-22.0,dqx3ztnpg,19125,"[""video/no_line_2_8cut.mp4""]",1,no_8,video/no_line_2_8cut.mp4,"2022-01-24 04:08:21",68.129.58.86,"Mozilla/5.0 (Windows NT 10.0; Win64; x64) AppleWebKit/537.36 (KHTML, like Gecko) Chrome/97.0.4692.71 Safari/537.36",WebKit,Chrome,97.0.4692.71,Windows,10.0,4d5ed8b1f2f00df59eccea4670b22524
16,1,"""","""","""","""","""",video-button-response,23,1325923,0.0-23.0,dqx3ztnpg,39232,"[""video/no_line_2_4cut.mp4""]",1,no_34,video/no_line_2_4cut.mp4,"2022-01-24 04:08:21",68.129.58.86,"Mozilla/5.0 (Windows NT 10.0; Win64; x64) AppleWebKit/537.36 (KHTML, like Gecko) Chrome/97.0.4692.71 Safari/537.36",WebKit,Chrome,97.0.4692.71,Windows,10.0,4d5ed8b1f2f00df59eccea4670b22524
16,1,"""","""","""","""","""",video-button-response,24,1532787,0.0-24.0,dqx3ztnpg,206855,"[""video/yes_line_9_8cut.mp4""]",1,yes_8,video/yes_line_9_8cut.mp4,"2022-01-24 04:08:21",68.129.58.86,"Mozilla/5.0 (Windows NT 10.0; Win64; x64) AppleWebKit/537.36 (KHTML, like Gecko) Chrome/97.0.4692.71 Safari/537.36",WebKit,Chrome,97.0.4692.71,Windows,10.0,4d5ed8b1f2f00df59eccea4670b22524
16,1,"""","""","""","""","""",video-button-response,25,1552097,0.0-25.0,dqx3ztnpg,19306,"[""video/no_line_1_1cut.mp4""]",0,no_1,video/no_line_1_1cut.mp4,"2022-01-24 04:08:21",68.129.58.86,"Mozilla/5.0 (Windows NT 10.0; Win64; x64) AppleWebKit/537.36 (KHTML, like Gecko) Chrome/97.0.4692.71 Safari/537.36",WebKit,Chrome,97.0.4692.71,Windows,10.0,4d5ed8b1f2f00df59eccea4670b22524
16,1,"""","""","""","""","""",video-button-response,26,1563622,0.0-26.0,dqx3ztnpg,11521,"[""video/yes_line_8_3cut.mp4""]",1,yes_34,video/yes_line_8_3cut.mp4,"2022-01-24 04:08:21",68.129.58.86,"Mozilla/5.0 (Windows NT 10.0; Win64; x64) AppleWebKit/537.36 (KHTML, like Gecko) Chrome/97.0.4692.71 Safari/537.36",WebKit,Chrome,97.0.4692.71,Windows,10.0,4d5ed8b1f2f00df59eccea4670b22524
16,1,"""","""","""","""","""",survey-html-form,27,1579738,0.0-27.0,dqx3ztnpg,16109,"""","[{""name"":""understand"",""value"":""yes""},{""name"":""problems"",""value"":""None""},{""name"":""age"",""value"":""32""},{""name"":""gender"",""value"":""male""},{""name"":""comments"",""value"":"" No""}]",debrief,"""","2022-01-24 04:08:21",68.129.58.86,"Mozilla/5.0 (Windows NT 10.0; Win64; x64) AppleWebKit/537.36 (KHTML, like Gecko) Chrome/97.0.4692.71 Safari/537.36",WebKit,Chrome,97.0.4692.71,Windows,10.0,4d5ed8b1f2f00df59eccea4670b22524
16,1,"""","""","""","""","""",html-keyboard-response,28,1590648,0.0-28.0,dqx3ztnpg,10905,"<div style=""font-size:20px;"">This task is now over. The completion code is: dqx3ztnpg You must press space after you have the completion code to finish. Thank you for your participation! </div>"," ","""","""","2022-01-24 04:08:21",68.129.58.86,"Mozilla/5.0 (Windows NT 10.0; Win64; x64) AppleWebKit/537.36 (KHTML, like Gecko) Chrome/97.0.4692.71 Safari/537.36",WebKit,Chrome,97.0.4692.71,Windows,10.0,4d5ed8b1f2f00df59eccea4670b22524
