run_id,condition,success,timeout,failed_images,failed_audio,failed_video,trial_type,trial_index,time_elapsed,internal_node_id,ID,rt,stimulus,response,trial_category,stimulus_name,recorded_at,ip,user_agent,device,browser,browser_version,platform,platform_version,source_code_version
16,1,true,false,[],[],[],preload,0,46714,0.0-0.0,sgaeuvnqz,"""","""","""","""","""","2022-01-21 10:25:59",70.120.230.130,"Mozilla/5.0 (Macintosh; Intel Mac OS X 10_15_7) AppleWebKit/605.1.15 (KHTML, like Gecko) Version/15.2 Safari/605.1.15",Macintosh,Safari,15.2,"OS X",10_15_7,0e004ee67082809967d4f48370ded4dc
16,1,"""","""","""","""","""",html-keyboard-response,1,72568,0.0-1.0,sgaeuvnqz,25845,"<p style=""text-align:center;width:700px;""> Welcome to the experiment! This study takes most people around 15 minutes to complete. Please complete it in one sitting.</p>"," ","""","""","2022-01-21 10:25:59",70.120.230.130,"Mozilla/5.0 (Macintosh; Intel Mac OS X 10_15_7) AppleWebKit/605.1.15 (KHTML, like Gecko) Version/15.2 Safari/605.1.15",Macintosh,Safari,15.2,"OS X",10_15_7,0e004ee67082809967d4f48370ded4dc
16,1,"""","""","""","""","""",html-keyboard-response,2,89450,0.0-2.0,sgaeuvnqz,16881,"<p style = ""font-size:16px;"">MIT Computational Cognitive Science Lab</p><h4>Press the 'y' key to consent.</h4><div style = ""background-color:#f2f2f2;""><h3>Informed Consent Form</h3><div style=""text-align:left;width:700px;""><p style = ""font-size:16px;"">In this HIT, you will be asked to read a set of instructions that describe a particular scenario, and you will then be asked to perform a simple task relating to that scenario. There will also be comprehension and attention checks. Participants who do not answer these checks correctly cannot be approved. In order to get credit for this HIT, you must read all the questions fully and answer honestly. You may only complete this HIT once. If you complete this HIT multiple times, you will be rejected.</p><p style = ""font-size:16px;"">This HIT is part of a MIT scientific research project. Your decision to complete this HIT is voluntary. There is no way for us to identify you. The only information we will have, in addition to your responses, is the time at which you completed the survey. The results of the research may be presented at scientific meetings or published in scientific journals. Pressing the ""Y"" key indicates that you are at least 18 years of age, and agree to complete this HIT voluntarily. Press the ""Y"" key to confirm your agreement and continue.</p></div>",y,"""","""","2022-01-21 10:25:59",70.120.230.130,"Mozilla/5.0 (Macintosh; Intel Mac OS X 10_15_7) AppleWebKit/605.1.15 (KHTML, like Gecko) Version/15.2 Safari/605.1.15",Macintosh,Safari,15.2,"OS X",10_15_7,0e004ee67082809967d4f48370ded4dc
16,1,"""","""","""","""","""",survey-text,3,131917,0.0-3.0,sgaeuvnqz,42429,"""","{""instructions1"":""To collect one bucket of water""}",instructions,"""","2022-01-21 10:25:59",70.120.230.130,"Mozilla/5.0 (Macintosh; Intel Mac OS X 10_15_7) AppleWebKit/605.1.15 (KHTML, like Gecko) Version/15.2 Safari/605.1.15",Macintosh,Safari,15.2,"OS X",10_15_7,0e004ee67082809967d4f48370ded4dc
16,1,"""","""","""","""","""",survey-text,4,203429,0.0-4.0,sgaeuvnqz,71502,"""","{""instructions2"":""After all 8 people have collected water and stored it in the bucket""}",instructions,"""","2022-01-21 10:25:59",70.120.230.130,"Mozilla/5.0 (Macintosh; Intel Mac OS X 10_15_7) AppleWebKit/605.1.15 (KHTML, like Gecko) Version/15.2 Safari/605.1.15",Macintosh,Safari,15.2,"OS X",10_15_7,0e004ee67082809967d4f48370ded4dc
16,1,"""","""","""","""","""",survey-text,5,248269,0.0-5.0,sgaeuvnqz,44832,"""","{""instructions3"":""1""}",instructions,"""","2022-01-21 10:25:59",70.120.230.130,"Mozilla/5.0 (Macintosh; Intel Mac OS X 10_15_7) AppleWebKit/605.1.15 (KHTML, like Gecko) Version/15.2 Safari/605.1.15",Macintosh,Safari,15.2,"OS X",10_15_7,0e004ee67082809967d4f48370ded4dc
16,1,"""","""","""","""","""",survey-text,6,337404,0.0-6.0,sgaeuvnqz,89021,"""","{""Q0"":""morally unacceptable. The person cut the line to cut in front of others while other people waited their turn.""}",explanation,video/yes_line_7_1cut.mp4,"2022-01-21 10:25:59",70.120.230.130,"Mozilla/5.0 (Macintosh; Intel Mac OS X 10_15_7) AppleWebKit/605.1.15 (KHTML, like Gecko) Version/15.2 Safari/605.1.15",Macintosh,Safari,15.2,"OS X",10_15_7,0e004ee67082809967d4f48370ded4dc
16,1,"""","""","""","""","""",video-button-response,7,359816,0.0-7.0,sgaeuvnqz,22372,"[""video/no_line_2_8cut.mp4""]",1,no_8,video/no_line_2_8cut.mp4,"2022-01-21 10:25:59",70.120.230.130,"Mozilla/5.0 (Macintosh; Intel Mac OS X 10_15_7) AppleWebKit/605.1.15 (KHTML, like Gecko) Version/15.2 Safari/605.1.15",Macintosh,Safari,15.2,"OS X",10_15_7,0e004ee67082809967d4f48370ded4dc
16,1,"""","""","""","""","""",video-button-response,8,397541,0.0-8.0,sgaeuvnqz,37694,"[""video/no_line_1_8cut.mp4""]",1,no_8,video/no_line_1_8cut.mp4,"2022-01-21 10:25:59",70.120.230.130,"Mozilla/5.0 (Macintosh; Intel Mac OS X 10_15_7) AppleWebKit/605.1.15 (KHTML, like Gecko) Version/15.2 Safari/605.1.15",Macintosh,Safari,15.2,"OS X",10_15_7,0e004ee67082809967d4f48370ded4dc
16,1,"""","""","""","""","""",video-button-response,9,474046,0.0-9.0,sgaeuvnqz,76465,"[""video/yes_line_10_1cut.mp4""]",0,yes_1,video/yes_line_10_1cut.mp4,"2022-01-21 10:25:59",70.120.230.130,"Mozilla/5.0 (Macintosh; Intel Mac OS X 10_15_7) AppleWebKit/605.1.15 (KHTML, like Gecko) Version/15.2 Safari/605.1.15",Macintosh,Safari,15.2,"OS X",10_15_7,0e004ee67082809967d4f48370ded4dc
16,1,"""","""","""","""","""",survey-text,10,578773,0.0-10.0,sgaeuvnqz,104684,"""","{""Q0"":""morally unacceptable. They cut the line and blocked the players that had already gotten water and made it take longer for others to get water.""}",explanation,video/yes_line_10_3cut.mp4,"2022-01-21 10:25:59",70.120.230.130,"Mozilla/5.0 (Macintosh; Intel Mac OS X 10_15_7) AppleWebKit/605.1.15 (KHTML, like Gecko) Version/15.2 Safari/605.1.15",Macintosh,Safari,15.2,"OS X",10_15_7,0e004ee67082809967d4f48370ded4dc
16,1,"""","""","""","""","""",video-button-response,11,612949,0.0-11.0,sgaeuvnqz,34139,"[""video/no_line_1_1cut.mp4""]",1,no_1,video/no_line_1_1cut.mp4,"2022-01-21 10:25:59",70.120.230.130,"Mozilla/5.0 (Macintosh; Intel Mac OS X 10_15_7) AppleWebKit/605.1.15 (KHTML, like Gecko) Version/15.2 Safari/605.1.15",Macintosh,Safari,15.2,"OS X",10_15_7,0e004ee67082809967d4f48370ded4dc
16,1,"""","""","""","""","""",video-button-response,12,654231,0.0-12.0,sgaeuvnqz,41245,"[""video/yes_line_7_8cut.mp4""]",1,yes_8,video/yes_line_7_8cut.mp4,"2022-01-21 10:25:59",70.120.230.130,"Mozilla/5.0 (Macintosh; Intel Mac OS X 10_15_7) AppleWebKit/605.1.15 (KHTML, like Gecko) Version/15.2 Safari/605.1.15",Macintosh,Safari,15.2,"OS X",10_15_7,0e004ee67082809967d4f48370ded4dc
16,1,"""","""","""","""","""",video-button-response,13,716490,0.0-13.0,sgaeuvnqz,62223,"[""video/yes_line_8_3cut.mp4""]",0,yes_34,video/yes_line_8_3cut.mp4,"2022-01-21 10:25:59",70.120.230.130,"Mozilla/5.0 (Macintosh; Intel Mac OS X 10_15_7) AppleWebKit/605.1.15 (KHTML, like Gecko) Version/15.2 Safari/605.1.15",Macintosh,Safari,15.2,"OS X",10_15_7,0e004ee67082809967d4f48370ded4dc
16,1,"""","""","""","""","""",survey-text,14,776422,0.0-14.0,sgaeuvnqz,59892,"""","{""Q0"":""morally acceptable. There was enough space for all players to move out of line and get water since it wasn't from a single well.""}",explanation,video/no_line_3_1cut.mp4,"2022-01-21 10:25:59",70.120.230.130,"Mozilla/5.0 (Macintosh; Intel Mac OS X 10_15_7) AppleWebKit/605.1.15 (KHTML, like Gecko) Version/15.2 Safari/605.1.15",Macintosh,Safari,15.2,"OS X",10_15_7,0e004ee67082809967d4f48370ded4dc
16,1,"""","""","""","""","""",video-button-response,15,801089,0.0-15.0,sgaeuvnqz,24634,"[""video/no_line_3_8cut.mp4""]",1,no_8,video/no_line_3_8cut.mp4,"2022-01-21 10:25:59",70.120.230.130,"Mozilla/5.0 (Macintosh; Intel Mac OS X 10_15_7) AppleWebKit/605.1.15 (KHTML, like Gecko) Version/15.2 Safari/605.1.15",Macintosh,Safari,15.2,"OS X",10_15_7,0e004ee67082809967d4f48370ded4dc
16,1,"""","""","""","""","""",video-button-response,16,853800,0.0-16.0,sgaeuvnqz,52673,"[""video/yes_line_8_1cut.mp4""]",0,yes_1,video/yes_line_8_1cut.mp4,"2022-01-21 10:25:59",70.120.230.130,"Mozilla/5.0 (Macintosh; Intel Mac OS X 10_15_7) AppleWebKit/605.1.15 (KHTML, like Gecko) Version/15.2 Safari/605.1.15",Macintosh,Safari,15.2,"OS X",10_15_7,0e004ee67082809967d4f48370ded4dc
16,1,"""","""","""","""","""",video-button-response,17,877260,0.0-17.0,sgaeuvnqz,23426,"[""video/no_line_3_3cut.mp4""]",1,no_34,video/no_line_3_3cut.mp4,"2022-01-21 10:25:59",70.120.230.130,"Mozilla/5.0 (Macintosh; Intel Mac OS X 10_15_7) AppleWebKit/605.1.15 (KHTML, like Gecko) Version/15.2 Safari/605.1.15",Macintosh,Safari,15.2,"OS X",10_15_7,0e004ee67082809967d4f48370ded4dc
16,1,"""","""","""","""","""",survey-text,18,970327,0.0-18.0,sgaeuvnqz,93026,"""","{""Q0"":""morally acceptable. They waited their turn and moved as others came back with their buckets of water.""}",explanation,video/yes_line_8_8cut.mp4,"2022-01-21 10:25:59",70.120.230.130,"Mozilla/5.0 (Macintosh; Intel Mac OS X 10_15_7) AppleWebKit/605.1.15 (KHTML, like Gecko) Version/15.2 Safari/605.1.15",Macintosh,Safari,15.2,"OS X",10_15_7,0e004ee67082809967d4f48370ded4dc
16,1,"""","""","""","""","""",video-button-response,19,1013643,0.0-19.0,sgaeuvnqz,43277,"[""video/yes_line_9_3cut.mp4""]",1,yes_34,video/yes_line_9_3cut.mp4,"2022-01-21 10:25:59",70.120.230.130,"Mozilla/5.0 (Macintosh; Intel Mac OS X 10_15_7) AppleWebKit/605.1.15 (KHTML, like Gecko) Version/15.2 Safari/605.1.15",Macintosh,Safari,15.2,"OS X",10_15_7,0e004ee67082809967d4f48370ded4dc
16,1,"""","""","""","""","""",video-button-response,20,1032923,0.0-20.0,sgaeuvnqz,19249,"[""video/no_line_2_4cut.mp4""]",1,no_34,video/no_line_2_4cut.mp4,"2022-01-21 10:25:59",70.120.230.130,"Mozilla/5.0 (Macintosh; Intel Mac OS X 10_15_7) AppleWebKit/605.1.15 (KHTML, like Gecko) Version/15.2 Safari/605.1.15",Macintosh,Safari,15.2,"OS X",10_15_7,0e004ee67082809967d4f48370ded4dc
16,1,"""","""","""","""","""",video-button-response,21,1063384,0.0-21.0,sgaeuvnqz,30427,"[""video/yes_line_9_1cut.mp4""]",0,yes_1,video/yes_line_9_1cut.mp4,"2022-01-21 10:25:59",70.120.230.130,"Mozilla/5.0 (Macintosh; Intel Mac OS X 10_15_7) AppleWebKit/605.1.15 (KHTML, like Gecko) Version/15.2 Safari/605.1.15",Macintosh,Safari,15.2,"OS X",10_15_7,0e004ee67082809967d4f48370ded4dc
16,1,"""","""","""","""","""",survey-text,22,1131144,0.0-22.0,sgaeuvnqz,67712,"""","{""Q0"":""morally unacceptable. They moved out of line and did not move when another player was trying to get to the large buckets.""}",explanation,video/yes_line_7_4cut.mp4,"2022-01-21 10:25:59",70.120.230.130,"Mozilla/5.0 (Macintosh; Intel Mac OS X 10_15_7) AppleWebKit/605.1.15 (KHTML, like Gecko) Version/15.2 Safari/605.1.15",Macintosh,Safari,15.2,"OS X",10_15_7,0e004ee67082809967d4f48370ded4dc
16,1,"""","""","""","""","""",video-button-response,23,1155367,0.0-23.0,sgaeuvnqz,24188,"[""video/no_line_1_3cut.mp4""]",1,no_34,video/no_line_1_3cut.mp4,"2022-01-21 10:25:59",70.120.230.130,"Mozilla/5.0 (Macintosh; Intel Mac OS X 10_15_7) AppleWebKit/605.1.15 (KHTML, like Gecko) Version/15.2 Safari/605.1.15",Macintosh,Safari,15.2,"OS X",10_15_7,0e004ee67082809967d4f48370ded4dc
16,1,"""","""","""","""","""",video-button-response,24,1180920,0.0-24.0,sgaeuvnqz,25521,"[""video/no_line_2_1cut.mp4""]",1,no_1,video/no_line_2_1cut.mp4,"2022-01-21 10:25:59",70.120.230.130,"Mozilla/5.0 (Macintosh; Intel Mac OS X 10_15_7) AppleWebKit/605.1.15 (KHTML, like Gecko) Version/15.2 Safari/605.1.15",Macintosh,Safari,15.2,"OS X",10_15_7,0e004ee67082809967d4f48370ded4dc
16,1,"""","""","""","""","""",survey-html-form,25,1202512,0.0-25.0,sgaeuvnqz,21589,"""","[{""name"":""understand"",""value"":""yes""},{""name"":""problems"",""value"":""There were no issues.""},{""name"":""age"",""value"":""34""},{""name"":""gender"",""value"":""male""},{""name"":""comments"",""value"":""}]",debrief,"""","2022-01-21 10:25:59",70.120.230.130,"Mozilla/5.0 (Macintosh; Intel Mac OS X 10_15_7) AppleWebKit/605.1.15 (KHTML, like Gecko) Version/15.2 Safari/605.1.15",Macintosh,Safari,15.2,"OS X",10_15_7,0e004ee67082809967d4f48370ded4dc
16,1,"""","""","""","""","""",html-keyboard-response,26,1221623,0.0-26.0,sgaeuvnqz,19109,"<div style=""font-size:20px;"">This task is now over. The completion code is: sgaeuvnqz Press space after you have the completion code to finish. Thank you for your participation! </div>"," ","""","""","2022-01-21 10:25:59",70.120.230.130,"Mozilla/5.0 (Macintosh; Intel Mac OS X 10_15_7) AppleWebKit/605.1.15 (KHTML, like Gecko) Version/15.2 Safari/605.1.15",Macintosh,Safari,15.2,"OS X",10_15_7,0e004ee67082809967d4f48370ded4dc
