run_id,condition,success,timeout,failed_images,failed_audio,failed_video,trial_type,trial_index,time_elapsed,internal_node_id,ID,rt,stimulus,response,trial_category,stimulus_name,recorded_at,ip,user_agent,device,browser,browser_version,platform,platform_version,source_code_version
51,1,true,false,[],[],[],preload,0,4431,0.0-0.0,c0903aayb,"""","""","""","""","""","2022-01-21 11:57:47",66.169.174.78,"Mozilla/5.0 (X11; CrOS x86_64 14324.62.0) AppleWebKit/537.36 (KHTML, like Gecko) Chrome/97.0.4692.77 Safari/537.36",WebKit,Chrome,97.0.4692.77,ChromeOS,14324.62.0,0e004ee67082809967d4f48370ded4dc
51,1,"""","""","""","""","""",html-keyboard-response,1,7053,0.0-1.0,c0903aayb,2617,"<p style=""text-align:center;width:700px;""> Welcome to the experiment! This study takes most people around 15 minutes to complete. Please complete it in one sitting.</p>"," ","""","""","2022-01-21 11:57:47",66.169.174.78,"Mozilla/5.0 (X11; CrOS x86_64 14324.62.0) AppleWebKit/537.36 (KHTML, like Gecko) Chrome/97.0.4692.77 Safari/537.36",WebKit,Chrome,97.0.4692.77,ChromeOS,14324.62.0,0e004ee67082809967d4f48370ded4dc
51,1,"""","""","""","""","""",html-keyboard-response,2,9854,0.0-2.0,c0903aayb,2799,"<p style = ""font-size:16px;"">MIT Computational Cognitive Science Lab</p><h4>Press the 'y' key to consent.</h4><div style = ""background-color:#f2f2f2;""><h3>Informed Consent Form</h3><div style=""text-align:left;width:700px;""><p style = ""font-size:16px;"">In this HIT, you will be asked to read a set of instructions that describe a particular scenario, and you will then be asked to perform a simple task relating to that scenario. There will also be comprehension and attention checks. Participants who do not answer these checks correctly cannot be approved. In order to get credit for this HIT, you must read all the questions fully and answer honestly. You may only complete this HIT once. If you complete this HIT multiple times, you will be rejected.</p><p style = ""font-size:16px;"">This HIT is part of a MIT scientific research project. Your decision to complete this HIT is voluntary. There is no way for us to identify you. The only information we will have, in addition to your responses, is the time at which you completed the survey. The results of the research may be presented at scientific meetings or published in scientific journals. Pressing the ""Y"" key indicates that you are at least 18 years of age, and agree to complete this HIT voluntarily. Press the ""Y"" key to confirm your agreement and continue.</p></div>",y,"""","""","2022-01-21 11:57:47",66.169.174.78,"Mozilla/5.0 (X11; CrOS x86_64 14324.62.0) AppleWebKit/537.36 (KHTML, like Gecko) Chrome/97.0.4692.77 Safari/537.36",WebKit,Chrome,97.0.4692.77,ChromeOS,14324.62.0,0e004ee67082809967d4f48370ded4dc
51,1,"""","""","""","""","""",survey-text,3,45399,0.0-3.0,c0903aayb,35533,"""","{""instructions1"":""to collect water and bring it back in buckets""}",instructions,"""","2022-01-21 11:57:47",66.169.174.78,"Mozilla/5.0 (X11; CrOS x86_64 14324.62.0) AppleWebKit/537.36 (KHTML, like Gecko) Chrome/97.0.4692.77 Safari/537.36",WebKit,Chrome,97.0.4692.77,ChromeOS,14324.62.0,0e004ee67082809967d4f48370ded4dc
51,1,"""","""","""","""","""",survey-text,4,92013,0.0-4.0,c0903aayb,46599,"""","{""instructions2"":""when everyone collects water and stores it in a bucket""}",instructions,"""","2022-01-21 11:57:47",66.169.174.78,"Mozilla/5.0 (X11; CrOS x86_64 14324.62.0) AppleWebKit/537.36 (KHTML, like Gecko) Chrome/97.0.4692.77 Safari/537.36",WebKit,Chrome,97.0.4692.77,ChromeOS,14324.62.0,0e004ee67082809967d4f48370ded4dc
51,1,"""","""","""","""","""",survey-text,5,120690,0.0-5.0,c0903aayb,28663,"""","{""instructions3"":""one""}",instructions,"""","2022-01-21 11:57:47",66.169.174.78,"Mozilla/5.0 (X11; CrOS x86_64 14324.62.0) AppleWebKit/537.36 (KHTML, like Gecko) Chrome/97.0.4692.77 Safari/537.36",WebKit,Chrome,97.0.4692.77,ChromeOS,14324.62.0,0e004ee67082809967d4f48370ded4dc
51,1,"""","""","""","""","""",survey-text,6,176862,0.0-6.0,c0903aayb,56158,"""","{""Q0"":""morally acceptable""}",explanation,video/yes_line_8_1cut.mp4,"2022-01-21 11:57:47",66.169.174.78,"Mozilla/5.0 (X11; CrOS x86_64 14324.62.0) AppleWebKit/537.36 (KHTML, like Gecko) Chrome/97.0.4692.77 Safari/537.36",WebKit,Chrome,97.0.4692.77,ChromeOS,14324.62.0,0e004ee67082809967d4f48370ded4dc
51,1,"""","""","""","""","""",video-button-response,7,208498,0.0-7.0,c0903aayb,31624,"[""video/yes_line_9_1cut.mp4""]",0,yes_1,video/yes_line_9_1cut.mp4,"2022-01-21 11:57:47",66.169.174.78,"Mozilla/5.0 (X11; CrOS x86_64 14324.62.0) AppleWebKit/537.36 (KHTML, like Gecko) Chrome/97.0.4692.77 Safari/537.36",WebKit,Chrome,97.0.4692.77,ChromeOS,14324.62.0,0e004ee67082809967d4f48370ded4dc
51,1,"""","""","""","""","""",video-button-response,8,227595,0.0-8.0,c0903aayb,19083,"[""video/no_line_2_4cut.mp4""]",1,no_34,video/no_line_2_4cut.mp4,"2022-01-21 11:57:47",66.169.174.78,"Mozilla/5.0 (X11; CrOS x86_64 14324.62.0) AppleWebKit/537.36 (KHTML, like Gecko) Chrome/97.0.4692.77 Safari/537.36",WebKit,Chrome,97.0.4692.77,ChromeOS,14324.62.0,0e004ee67082809967d4f48370ded4dc
51,1,"""","""","""","""","""",video-button-response,9,300717,0.0-9.0,c0903aayb,73104,"[""video/yes_line_10_1cut.mp4""]",0,yes_1,video/yes_line_10_1cut.mp4,"2022-01-21 11:57:47",66.169.174.78,"Mozilla/5.0 (X11; CrOS x86_64 14324.62.0) AppleWebKit/537.36 (KHTML, like Gecko) Chrome/97.0.4692.77 Safari/537.36",WebKit,Chrome,97.0.4692.77,ChromeOS,14324.62.0,0e004ee67082809967d4f48370ded4dc
51,1,"""","""","""","""","""",survey-text,10,377313,0.0-10.0,c0903aayb,76583,"""","{""Q0"":""morally acceptable""}",explanation,video/yes_line_10_3cut.mp4,"2022-01-21 11:57:47",66.169.174.78,"Mozilla/5.0 (X11; CrOS x86_64 14324.62.0) AppleWebKit/537.36 (KHTML, like Gecko) Chrome/97.0.4692.77 Safari/537.36",WebKit,Chrome,97.0.4692.77,ChromeOS,14324.62.0,0e004ee67082809967d4f48370ded4dc
51,1,"""","""","""","""","""",video-button-response,11,408718,0.0-11.0,c0903aayb,31396,"[""video/no_line_1_1cut.mp4""]",1,no_1,video/no_line_1_1cut.mp4,"2022-01-21 11:57:47",66.169.174.78,"Mozilla/5.0 (X11; CrOS x86_64 14324.62.0) AppleWebKit/537.36 (KHTML, like Gecko) Chrome/97.0.4692.77 Safari/537.36",WebKit,Chrome,97.0.4692.77,ChromeOS,14324.62.0,0e004ee67082809967d4f48370ded4dc
51,1,"""","""","""","""","""",video-button-response,12,431137,0.0-12.0,c0903aayb,22414,"[""video/no_line_3_3cut.mp4""]",1,no_34,video/no_line_3_3cut.mp4,"2022-01-21 11:57:47",66.169.174.78,"Mozilla/5.0 (X11; CrOS x86_64 14324.62.0) AppleWebKit/537.36 (KHTML, like Gecko) Chrome/97.0.4692.77 Safari/537.36",WebKit,Chrome,97.0.4692.77,ChromeOS,14324.62.0,0e004ee67082809967d4f48370ded4dc
51,1,"""","""","""","""","""",video-button-response,13,464254,0.0-13.0,c0903aayb,33110,"[""video/yes_line_7_4cut.mp4""]",1,yes_34,video/yes_line_7_4cut.mp4,"2022-01-21 11:57:47",66.169.174.78,"Mozilla/5.0 (X11; CrOS x86_64 14324.62.0) AppleWebKit/537.36 (KHTML, like Gecko) Chrome/97.0.4692.77 Safari/537.36",WebKit,Chrome,97.0.4692.77,ChromeOS,14324.62.0,0e004ee67082809967d4f48370ded4dc
51,1,"""","""","""","""","""",survey-text,14,525831,0.0-14.0,c0903aayb,61568,"""","{""Q0"":""morally unacceptable because he followed everyone else""}",explanation,video/yes_line_8_8cut.mp4,"2022-01-21 11:57:47",66.169.174.78,"Mozilla/5.0 (X11; CrOS x86_64 14324.62.0) AppleWebKit/537.36 (KHTML, like Gecko) Chrome/97.0.4692.77 Safari/537.36",WebKit,Chrome,97.0.4692.77,ChromeOS,14324.62.0,0e004ee67082809967d4f48370ded4dc
51,1,"""","""","""","""","""",video-button-response,15,542914,0.0-15.0,c0903aayb,17074,"[""video/no_line_2_8cut.mp4""]",1,no_8,video/no_line_2_8cut.mp4,"2022-01-21 11:57:47",66.169.174.78,"Mozilla/5.0 (X11; CrOS x86_64 14324.62.0) AppleWebKit/537.36 (KHTML, like Gecko) Chrome/97.0.4692.77 Safari/537.36",WebKit,Chrome,97.0.4692.77,ChromeOS,14324.62.0,0e004ee67082809967d4f48370ded4dc
51,1,"""","""","""","""","""",video-button-response,16,569383,0.0-16.0,c0903aayb,26463,"[""video/no_line_3_1cut.mp4""]",1,no_1,video/no_line_3_1cut.mp4,"2022-01-21 11:57:47",66.169.174.78,"Mozilla/5.0 (X11; CrOS x86_64 14324.62.0) AppleWebKit/537.36 (KHTML, like Gecko) Chrome/97.0.4692.77 Safari/537.36",WebKit,Chrome,97.0.4692.77,ChromeOS,14324.62.0,0e004ee67082809967d4f48370ded4dc
51,1,"""","""","""","""","""",video-button-response,17,593869,0.0-17.0,c0903aayb,24481,"[""video/no_line_3_8cut.mp4""]",1,no_8,video/no_line_3_8cut.mp4,"2022-01-21 11:57:47",66.169.174.78,"Mozilla/5.0 (X11; CrOS x86_64 14324.62.0) AppleWebKit/537.36 (KHTML, like Gecko) Chrome/97.0.4692.77 Safari/537.36",WebKit,Chrome,97.0.4692.77,ChromeOS,14324.62.0,0e004ee67082809967d4f48370ded4dc
51,1,"""","""","""","""","""",survey-text,18,639566,0.0-18.0,c0903aayb,45688,"""","{""Q0"":""morally acceptable because they did what everyone was supposed to do""}",explanation,video/yes_line_7_8cut.mp4,"2022-01-21 11:57:47",66.169.174.78,"Mozilla/5.0 (X11; CrOS x86_64 14324.62.0) AppleWebKit/537.36 (KHTML, like Gecko) Chrome/97.0.4692.77 Safari/537.36",WebKit,Chrome,97.0.4692.77,ChromeOS,14324.62.0,0e004ee67082809967d4f48370ded4dc
51,1,"""","""","""","""","""",video-button-response,19,663818,0.0-19.0,c0903aayb,24220,"[""video/no_line_1_8cut.mp4""]",1,no_8,video/no_line_1_8cut.mp4,"2022-01-21 11:57:47",66.169.174.78,"Mozilla/5.0 (X11; CrOS x86_64 14324.62.0) AppleWebKit/537.36 (KHTML, like Gecko) Chrome/97.0.4692.77 Safari/537.36",WebKit,Chrome,97.0.4692.77,ChromeOS,14324.62.0,0e004ee67082809967d4f48370ded4dc
51,1,"""","""","""","""","""",video-button-response,20,701777,0.0-20.0,c0903aayb,37955,"[""video/yes_line_9_3cut.mp4""]",1,yes_34,video/yes_line_9_3cut.mp4,"2022-01-21 11:57:47",66.169.174.78,"Mozilla/5.0 (X11; CrOS x86_64 14324.62.0) AppleWebKit/537.36 (KHTML, like Gecko) Chrome/97.0.4692.77 Safari/537.36",WebKit,Chrome,97.0.4692.77,ChromeOS,14324.62.0,0e004ee67082809967d4f48370ded4dc
51,1,"""","""","""","""","""",video-button-response,21,727496,0.0-21.0,c0903aayb,25713,"[""video/no_line_2_1cut.mp4""]",1,no_1,video/no_line_2_1cut.mp4,"2022-01-21 11:57:47",66.169.174.78,"Mozilla/5.0 (X11; CrOS x86_64 14324.62.0) AppleWebKit/537.36 (KHTML, like Gecko) Chrome/97.0.4692.77 Safari/537.36",WebKit,Chrome,97.0.4692.77,ChromeOS,14324.62.0,0e004ee67082809967d4f48370ded4dc
51,1,"""","""","""","""","""",survey-text,22,757421,0.0-22.0,c0903aayb,29912,"""","{""Q0"":""morally acceptable because they did nothing wrong""}",explanation,video/no_line_1_3cut.mp4,"2022-01-21 11:57:47",66.169.174.78,"Mozilla/5.0 (X11; CrOS x86_64 14324.62.0) AppleWebKit/537.36 (KHTML, like Gecko) Chrome/97.0.4692.77 Safari/537.36",WebKit,Chrome,97.0.4692.77,ChromeOS,14324.62.0,0e004ee67082809967d4f48370ded4dc
51,1,"""","""","""","""","""",video-button-response,23,818502,0.0-23.0,c0903aayb,61075,"[""video/yes_line_8_3cut.mp4""]",1,yes_34,video/yes_line_8_3cut.mp4,"2022-01-21 11:57:47",66.169.174.78,"Mozilla/5.0 (X11; CrOS x86_64 14324.62.0) AppleWebKit/537.36 (KHTML, like Gecko) Chrome/97.0.4692.77 Safari/537.36",WebKit,Chrome,97.0.4692.77,ChromeOS,14324.62.0,0e004ee67082809967d4f48370ded4dc
51,1,"""","""","""","""","""",video-button-response,24,848187,0.0-24.0,c0903aayb,29680,"[""video/yes_line_7_1cut.mp4""]",0,yes_1,video/yes_line_7_1cut.mp4,"2022-01-21 11:57:47",66.169.174.78,"Mozilla/5.0 (X11; CrOS x86_64 14324.62.0) AppleWebKit/537.36 (KHTML, like Gecko) Chrome/97.0.4692.77 Safari/537.36",WebKit,Chrome,97.0.4692.77,ChromeOS,14324.62.0,0e004ee67082809967d4f48370ded4dc
51,1,"""","""","""","""","""",survey-html-form,25,858818,0.0-25.0,c0903aayb,10627,"""","[{""name"":""understand"",""value"":""yes""},{""name"":""problems"",""value"":""no""},{""name"":""age"",""value"":""54""},{""name"":""gender"",""value"":""male""},{""name"":""comments"",""value"":""}]",debrief,"""","2022-01-21 11:57:47",66.169.174.78,"Mozilla/5.0 (X11; CrOS x86_64 14324.62.0) AppleWebKit/537.36 (KHTML, like Gecko) Chrome/97.0.4692.77 Safari/537.36",WebKit,Chrome,97.0.4692.77,ChromeOS,14324.62.0,0e004ee67082809967d4f48370ded4dc
51,1,"""","""","""","""","""",html-keyboard-response,26,866533,0.0-26.0,c0903aayb,7712,"<div style=""font-size:20px;"">This task is now over. The completion code is: c0903aayb Press space after you have the completion code to finish. Thank you for your participation! </div>"," ","""","""","2022-01-21 11:57:47",66.169.174.78,"Mozilla/5.0 (X11; CrOS x86_64 14324.62.0) AppleWebKit/537.36 (KHTML, like Gecko) Chrome/97.0.4692.77 Safari/537.36",WebKit,Chrome,97.0.4692.77,ChromeOS,14324.62.0,0e004ee67082809967d4f48370ded4dc
