run_id,condition,success,timeout,failed_images,failed_audio,failed_video,trial_type,trial_index,time_elapsed,internal_node_id,ID,rt,stimulus,response,trial_category,stimulus_name,recorded_at,ip,user_agent,device,browser,browser_version,platform,platform_version,source_code_version
13,1,true,false,[],[],[],preload,0,1652,0.0-0.0,pzfy9dnv5,"""","""","""","""","""","2022-01-22 09:08:17",73.219.249.59,"Mozilla/5.0 (Windows NT 10.0; Win64; x64; rv:96.0) Gecko/20100101 Firefox/96.0",,Firefox,96.0,Windows,10.0,24e4d3b4af534adcfe0f7940270cc30d
13,1,"""","""","""","""","""",html-keyboard-response,1,5169,0.0-1.0,pzfy9dnv5,3514,"<p style=""text-align:center;width:700px;""> Welcome to the experiment! This study takes most people around 10 minutes to complete. Please complete it in one sitting.</p>"," ","""","""","2022-01-22 09:08:17",73.219.249.59,"Mozilla/5.0 (Windows NT 10.0; Win64; x64; rv:96.0) Gecko/20100101 Firefox/96.0",,Firefox,96.0,Windows,10.0,24e4d3b4af534adcfe0f7940270cc30d
13,1,"""","""","""","""","""",html-keyboard-response,2,41720,0.0-2.0,pzfy9dnv5,36550,"<p style = ""font-size:16px;"">MIT Computational Cognitive Science Lab</p><h4>Press the 'y' key to consent.</h4><div style = ""background-color:#f2f2f2;""><h3>Informed Consent Form</h3><div style=""text-align:left;width:700px;""><p style = ""font-size:16px;"">In this HIT, you will be asked to read a set of instructions that describe a particular scenario, and you will then be asked to perform a simple task relating to that scenario. There will also be comprehension and attention checks. Participants who do not answer these checks correctly cannot be approved. In order to get credit for this HIT, you must read all the questions fully and answer honestly. You may only complete this HIT once. If you complete this HIT multiple times, you will be rejected.</p><p style = ""font-size:16px;"">This HIT is part of a MIT scientific research project. Your decision to complete this HIT is voluntary. There is no way for us to identify you. The only information we will have, in addition to your responses, is the time at which you completed the survey. The results of the research may be presented at scientific meetings or published in scientific journals. Pressing the ""Y"" key indicates that you are at least 18 years of age, and agree to complete this HIT voluntarily. Press the ""Y"" key to confirm your agreement and continue.</p></div>",y,"""","""","2022-01-22 09:08:17",73.219.249.59,"Mozilla/5.0 (Windows NT 10.0; Win64; x64; rv:96.0) Gecko/20100101 Firefox/96.0",,Firefox,96.0,Windows,10.0,24e4d3b4af534adcfe0f7940270cc30d
13,1,"""","""","""","""","""",survey-text,3,84844,0.0-3.0,pzfy9dnv5,43113,"""","{""instructions1"":""collect water""}",instructions,"""","2022-01-22 09:08:17",73.219.249.59,"Mozilla/5.0 (Windows NT 10.0; Win64; x64; rv:96.0) Gecko/20100101 Firefox/96.0",,Firefox,96.0,Windows,10.0,24e4d3b4af534adcfe0f7940270cc30d
13,1,"""","""","""","""","""",survey-text,4,167968,0.0-4.0,pzfy9dnv5,83105,"""","{""instructions2"":""1""}",instructions,"""","2022-01-22 09:08:17",73.219.249.59,"Mozilla/5.0 (Windows NT 10.0; Win64; x64; rv:96.0) Gecko/20100101 Firefox/96.0",,Firefox,96.0,Windows,10.0,24e4d3b4af534adcfe0f7940270cc30d
13,1,"""","""","""","""","""",survey-text,5,227226,0.0-5.0,pzfy9dnv5,59253,"""","{""instructions4"":""8""}",instructions,"""","2022-01-22 09:08:17",73.219.249.59,"Mozilla/5.0 (Windows NT 10.0; Win64; x64; rv:96.0) Gecko/20100101 Firefox/96.0",,Firefox,96.0,Windows,10.0,24e4d3b4af534adcfe0f7940270cc30d
13,1,"""","""","""","""","""",video-button-response,6,261308,0.0-6.0,pzfy9dnv5,34058,"[""video/yes_line_7_4cut.mp4""]",1,yes_34,video/yes_line_7_4cut.mp4,"2022-01-22 09:08:17",73.219.249.59,"Mozilla/5.0 (Windows NT 10.0; Win64; x64; rv:96.0) Gecko/20100101 Firefox/96.0",,Firefox,96.0,Windows,10.0,24e4d3b4af534adcfe0f7940270cc30d
13,1,"""","""","""","""","""",video-button-response,7,297600,0.0-7.0,pzfy9dnv5,36279,"[""video/maybe_line_5_8cut.mp4""]",1,maybe_8,video/maybe_line_5_8cut.mp4,"2022-01-22 09:08:17",73.219.249.59,"Mozilla/5.0 (Windows NT 10.0; Win64; x64; rv:96.0) Gecko/20100101 Firefox/96.0",,Firefox,96.0,Windows,10.0,24e4d3b4af534adcfe0f7940270cc30d
13,1,"""","""","""","""","""",video-button-response,8,320308,0.0-8.0,pzfy9dnv5,22698,"[""video/no_line_1_8cut.mp4""]",1,no_8,video/no_line_1_8cut.mp4,"2022-01-22 09:08:17",73.219.249.59,"Mozilla/5.0 (Windows NT 10.0; Win64; x64; rv:96.0) Gecko/20100101 Firefox/96.0",,Firefox,96.0,Windows,10.0,24e4d3b4af534adcfe0f7940270cc30d
13,1,"""","""","""","""","""",video-button-response,9,340777,0.0-9.0,pzfy9dnv5,20455,"[""video/no_line_1_1cut.mp4""]",1,no_1,video/no_line_1_1cut.mp4,"2022-01-22 09:08:17",73.219.249.59,"Mozilla/5.0 (Windows NT 10.0; Win64; x64; rv:96.0) Gecko/20100101 Firefox/96.0",,Firefox,96.0,Windows,10.0,24e4d3b4af534adcfe0f7940270cc30d
13,1,"""","""","""","""","""",video-button-response,10,366488,0.0-10.0,pzfy9dnv5,25701,"[""video/maybe_line_5_1cut.mp4""]",1,maybe_1,video/maybe_line_5_1cut.mp4,"2022-01-22 09:08:17",73.219.249.59,"Mozilla/5.0 (Windows NT 10.0; Win64; x64; rv:96.0) Gecko/20100101 Firefox/96.0",,Firefox,96.0,Windows,10.0,24e4d3b4af534adcfe0f7940270cc30d
13,1,"""","""","""","""","""",video-button-response,11,389631,0.0-11.0,pzfy9dnv5,23134,"[""video/yes_line_9_1cut.mp4""]",0,yes_1,video/yes_line_9_1cut.mp4,"2022-01-22 09:08:17",73.219.249.59,"Mozilla/5.0 (Windows NT 10.0; Win64; x64; rv:96.0) Gecko/20100101 Firefox/96.0",,Firefox,96.0,Windows,10.0,24e4d3b4af534adcfe0f7940270cc30d
13,1,"""","""","""","""","""",video-button-response,12,409029,0.0-12.0,pzfy9dnv5,19387,"[""video/maybe_line_6_3cut.mp4""]",1,maybe_34,video/maybe_line_6_3cut.mp4,"2022-01-22 09:08:17",73.219.249.59,"Mozilla/5.0 (Windows NT 10.0; Win64; x64; rv:96.0) Gecko/20100101 Firefox/96.0",,Firefox,96.0,Windows,10.0,24e4d3b4af534adcfe0f7940270cc30d
13,1,"""","""","""","""","""",video-button-response,13,424100,0.0-13.0,pzfy9dnv5,15058,"[""video/yes_line_8_8cut.mp4""]",1,yes_8,video/yes_line_8_8cut.mp4,"2022-01-22 09:08:17",73.219.249.59,"Mozilla/5.0 (Windows NT 10.0; Win64; x64; rv:96.0) Gecko/20100101 Firefox/96.0",,Firefox,96.0,Windows,10.0,24e4d3b4af534adcfe0f7940270cc30d
13,1,"""","""","""","""","""",video-button-response,14,435755,0.0-14.0,pzfy9dnv5,11646,"[""video/no_line_2_8cut.mp4""]",1,no_8,video/no_line_2_8cut.mp4,"2022-01-22 09:08:17",73.219.249.59,"Mozilla/5.0 (Windows NT 10.0; Win64; x64; rv:96.0) Gecko/20100101 Firefox/96.0",,Firefox,96.0,Windows,10.0,24e4d3b4af534adcfe0f7940270cc30d
13,1,"""","""","""","""","""",video-button-response,15,454732,0.0-15.0,pzfy9dnv5,18967,"[""video/no_line_1_3cut.mp4""]",1,no_34,video/no_line_1_3cut.mp4,"2022-01-22 09:08:17",73.219.249.59,"Mozilla/5.0 (Windows NT 10.0; Win64; x64; rv:96.0) Gecko/20100101 Firefox/96.0",,Firefox,96.0,Windows,10.0,24e4d3b4af534adcfe0f7940270cc30d
13,1,"""","""","""","""","""",video-button-response,16,465914,0.0-16.0,pzfy9dnv5,11171,"[""video/maybe_line_4_1cut.mp4""]",1,maybe_1,video/maybe_line_4_1cut.mp4,"2022-01-22 09:08:17",73.219.249.59,"Mozilla/5.0 (Windows NT 10.0; Win64; x64; rv:96.0) Gecko/20100101 Firefox/96.0",,Firefox,96.0,Windows,10.0,24e4d3b4af534adcfe0f7940270cc30d
13,1,"""","""","""","""","""",video-button-response,17,483252,0.0-17.0,pzfy9dnv5,17321,"[""video/yes_line_8_3cut.mp4""]",0,yes_34,video/yes_line_8_3cut.mp4,"2022-01-22 09:08:17",73.219.249.59,"Mozilla/5.0 (Windows NT 10.0; Win64; x64; rv:96.0) Gecko/20100101 Firefox/96.0",,Firefox,96.0,Windows,10.0,24e4d3b4af534adcfe0f7940270cc30d
13,1,"""","""","""","""","""",video-button-response,18,499462,0.0-18.0,pzfy9dnv5,16202,"[""video/no_line_3_3cut.mp4""]",1,no_34,video/no_line_3_3cut.mp4,"2022-01-22 09:08:17",73.219.249.59,"Mozilla/5.0 (Windows NT 10.0; Win64; x64; rv:96.0) Gecko/20100101 Firefox/96.0",,Firefox,96.0,Windows,10.0,24e4d3b4af534adcfe0f7940270cc30d
13,1,"""","""","""","""","""",video-button-response,19,506963,0.0-19.0,pzfy9dnv5,7489,"[""video/maybe_line_6_8cut.mp4""]",1,maybe_8,video/maybe_line_6_8cut.mp4,"2022-01-22 09:08:17",73.219.249.59,"Mozilla/5.0 (Windows NT 10.0; Win64; x64; rv:96.0) Gecko/20100101 Firefox/96.0",,Firefox,96.0,Windows,10.0,24e4d3b4af534adcfe0f7940270cc30d
13,1,"""","""","""","""","""",video-button-response,20,519018,0.0-20.0,pzfy9dnv5,12045,"[""video/yes_line_10_1cut.mp4""]",0,yes_1,video/yes_line_10_1cut.mp4,"2022-01-22 09:08:17",73.219.249.59,"Mozilla/5.0 (Windows NT 10.0; Win64; x64; rv:96.0) Gecko/20100101 Firefox/96.0",,Firefox,96.0,Windows,10.0,24e4d3b4af534adcfe0f7940270cc30d
13,1,"""","""","""","""","""",video-button-response,21,530731,0.0-21.0,pzfy9dnv5,11699,"[""video/yes_line_8_1cut.mp4""]",0,yes_1,video/yes_line_8_1cut.mp4,"2022-01-22 09:08:17",73.219.249.59,"Mozilla/5.0 (Windows NT 10.0; Win64; x64; rv:96.0) Gecko/20100101 Firefox/96.0",,Firefox,96.0,Windows,10.0,24e4d3b4af534adcfe0f7940270cc30d
13,1,"""","""","""","""","""",video-button-response,22,543273,0.0-22.0,pzfy9dnv5,12531,"[""video/yes_line_10_3cut.mp4""]",0,yes_34,video/yes_line_10_3cut.mp4,"2022-01-22 09:08:17",73.219.249.59,"Mozilla/5.0 (Windows NT 10.0; Win64; x64; rv:96.0) Gecko/20100101 Firefox/96.0",,Firefox,96.0,Windows,10.0,24e4d3b4af534adcfe0f7940270cc30d
13,1,"""","""","""","""","""",video-button-response,23,552618,0.0-23.0,pzfy9dnv5,9335,"[""video/no_line_2_4cut.mp4""]",1,no_34,video/no_line_2_4cut.mp4,"2022-01-22 09:08:17",73.219.249.59,"Mozilla/5.0 (Windows NT 10.0; Win64; x64; rv:96.0) Gecko/20100101 Firefox/96.0",,Firefox,96.0,Windows,10.0,24e4d3b4af534adcfe0f7940270cc30d
13,1,"""","""","""","""","""",video-button-response,24,582678,0.0-24.0,pzfy9dnv5,30050,"[""video/maybe_line_5_4cut.mp4""]",1,maybe_34,video/maybe_line_5_4cut.mp4,"2022-01-22 09:08:17",73.219.249.59,"Mozilla/5.0 (Windows NT 10.0; Win64; x64; rv:96.0) Gecko/20100101 Firefox/96.0",,Firefox,96.0,Windows,10.0,24e4d3b4af534adcfe0f7940270cc30d
13,1,"""","""","""","""","""",video-button-response,25,615509,0.0-25.0,pzfy9dnv5,32816,"[""video/yes_line_7_8cut.mp4""]",1,yes_8,video/yes_line_7_8cut.mp4,"2022-01-22 09:08:17",73.219.249.59,"Mozilla/5.0 (Windows NT 10.0; Win64; x64; rv:96.0) Gecko/20100101 Firefox/96.0",,Firefox,96.0,Windows,10.0,24e4d3b4af534adcfe0f7940270cc30d
13,1,"""","""","""","""","""",video-button-response,26,628821,0.0-26.0,pzfy9dnv5,13297,"[""video/yes_line_9_3cut.mp4""]",0,yes_34,video/yes_line_9_3cut.mp4,"2022-01-22 09:08:17",73.219.249.59,"Mozilla/5.0 (Windows NT 10.0; Win64; x64; rv:96.0) Gecko/20100101 Firefox/96.0",,Firefox,96.0,Windows,10.0,24e4d3b4af534adcfe0f7940270cc30d
13,1,"""","""","""","""","""",video-button-response,27,639174,0.0-27.0,pzfy9dnv5,10341,"[""video/no_line_3_1cut.mp4""]",1,no_1,video/no_line_3_1cut.mp4,"2022-01-22 09:08:17",73.219.249.59,"Mozilla/5.0 (Windows NT 10.0; Win64; x64; rv:96.0) Gecko/20100101 Firefox/96.0",,Firefox,96.0,Windows,10.0,24e4d3b4af534adcfe0f7940270cc30d
13,1,"""","""","""","""","""",video-button-response,28,649868,0.0-28.0,pzfy9dnv5,10683,"[""video/no_line_2_1cut.mp4""]",1,no_1,video/no_line_2_1cut.mp4,"2022-01-22 09:08:17",73.219.249.59,"Mozilla/5.0 (Windows NT 10.0; Win64; x64; rv:96.0) Gecko/20100101 Firefox/96.0",,Firefox,96.0,Windows,10.0,24e4d3b4af534adcfe0f7940270cc30d
13,1,"""","""","""","""","""",video-button-response,29,658540,0.0-29.0,pzfy9dnv5,8658,"[""video/maybe_line_4_8cut.mp4""]",1,maybe_8,video/maybe_line_4_8cut.mp4,"2022-01-22 09:08:17",73.219.249.59,"Mozilla/5.0 (Windows NT 10.0; Win64; x64; rv:96.0) Gecko/20100101 Firefox/96.0",,Firefox,96.0,Windows,10.0,24e4d3b4af534adcfe0f7940270cc30d
13,1,"""","""","""","""","""",video-button-response,30,667186,0.0-30.0,pzfy9dnv5,8635,"[""video/no_line_3_8cut.mp4""]",1,no_8,video/no_line_3_8cut.mp4,"2022-01-22 09:08:17",73.219.249.59,"Mozilla/5.0 (Windows NT 10.0; Win64; x64; rv:96.0) Gecko/20100101 Firefox/96.0",,Firefox,96.0,Windows,10.0,24e4d3b4af534adcfe0f7940270cc30d
13,1,"""","""","""","""","""",video-button-response,31,677231,0.0-31.0,pzfy9dnv5,10034,"[""video/maybe_line_6_1cut.mp4""]",1,maybe_1,video/maybe_line_6_1cut.mp4,"2022-01-22 09:08:17",73.219.249.59,"Mozilla/5.0 (Windows NT 10.0; Win64; x64; rv:96.0) Gecko/20100101 Firefox/96.0",,Firefox,96.0,Windows,10.0,24e4d3b4af534adcfe0f7940270cc30d
13,1,"""","""","""","""","""",video-button-response,32,692507,0.0-32.0,pzfy9dnv5,15268,"[""video/yes_line_7_1cut.mp4""]",0,yes_1,video/yes_line_7_1cut.mp4,"2022-01-22 09:08:17",73.219.249.59,"Mozilla/5.0 (Windows NT 10.0; Win64; x64; rv:96.0) Gecko/20100101 Firefox/96.0",,Firefox,96.0,Windows,10.0,24e4d3b4af534adcfe0f7940270cc30d
13,1,"""","""","""","""","""",video-button-response,33,718154,0.0-33.0,pzfy9dnv5,25635,"[""video/maybe_line_4_4cut.mp4""]",1,maybe_34,video/maybe_line_4_4cut.mp4,"2022-01-22 09:08:17",73.219.249.59,"Mozilla/5.0 (Windows NT 10.0; Win64; x64; rv:96.0) Gecko/20100101 Firefox/96.0",,Firefox,96.0,Windows,10.0,24e4d3b4af534adcfe0f7940270cc30d
13,1,"""","""","""","""","""",survey-html-form,34,752933,0.0-34.0,pzfy9dnv5,34570,"""","[{""name"":""understand"",""value"":""yes""},{""name"":""problems"",""value"":""There were no issues so far.""},{""name"":""age"",""value"":""34""},{""name"":""gender"",""value"":""male""},{""name"":""comments"",""value"":""Thank you for offering this very interesting study. I would love to participate in more studies like this in the future.""}]",debrief,"""","2022-01-22 09:08:17",73.219.249.59,"Mozilla/5.0 (Windows NT 10.0; Win64; x64; rv:96.0) Gecko/20100101 Firefox/96.0",,Firefox,96.0,Windows,10.0,24e4d3b4af534adcfe0f7940270cc30d
13,1,"""","""","""","""","""",html-keyboard-response,35,766801,0.0-35.0,pzfy9dnv5,13860,"<div style=""font-size:20px;"">This task is now over. The completion code is: pzfy9dnv5 Press space after you have the completion code to finish. Thank you for your participation! </div>"," ","""","""","2022-01-22 09:08:17",73.219.249.59,"Mozilla/5.0 (Windows NT 10.0; Win64; x64; rv:96.0) Gecko/20100101 Firefox/96.0",,Firefox,96.0,Windows,10.0,24e4d3b4af534adcfe0f7940270cc30d
