run_id,condition,success,timeout,failed_images,failed_audio,failed_video,trial_type,trial_index,time_elapsed,internal_node_id,ID,rt,stimulus,response,trial_category,stimulus_name,recorded_at,ip,user_agent,device,browser,browser_version,platform,platform_version,source_code_version
10,1,true,false,[],[],[],preload,0,1632,0.0-0.0,v75yhwwna,"""","""","""","""","""",2022-01-25 02:03:25,52.128.53.190,"Mozilla/5.0 (Windows NT 10.0; Win64; x64) AppleWebKit/537.36 (KHTML, like Gecko) Chrome/97.0.4692.71 Safari/537.36",WebKit,Chrome,97.0.4692.71,Windows,10.0,7b8458fb558ed8aeae2461372fcc99b6
10,1,"""","""","""","""","""",html-keyboard-response,1,3657,0.0-1.0,v75yhwwna,2023,"<p style=""text-align:center;width:700px;""> Welcome to the experiment! This study takes most people around 15 minutes to complete. Please complete it in one sitting.</p>", ,"""","""",2022-01-25 02:03:25,52.128.53.190,"Mozilla/5.0 (Windows NT 10.0; Win64; x64) AppleWebKit/537.36 (KHTML, like Gecko) Chrome/97.0.4692.71 Safari/537.36",WebKit,Chrome,97.0.4692.71,Windows,10.0,7b8458fb558ed8aeae2461372fcc99b6
10,1,"""","""","""","""","""",html-keyboard-response,2,6613,0.0-2.0,v75yhwwna,2956,"<p style = ""font-size:16px;"">MIT Computational Cognitive Science Lab</p><h4>Press the 'y' key to consent.</h4><div style = ""background-color:#f2f2f2;""><h3>Informed Consent Form</h3><div style=""text-align:left;width:700px;""><p style = ""font-size:16px;"">In this HIT, you will be asked to read a set of instructions that describe a particular scenario, and you will then be asked to perform a simple task relating to that scenario. There will also be comprehension and attention checks. Participants who do not answer these checks correctly cannot be approved. In order to get credit for this HIT, you must read all the questions fully and answer honestly. You may only complete this HIT once. If you complete this HIT multiple times, you will be rejected.</p><p style = ""font-size:16px;"">This HIT is part of a MIT scientific research project. Your decision to complete this HIT is voluntary. There is no way for us to identify you. The only information we will have, in addition to your responses, is the time at which you completed the survey. The results of the research may be presented at scientific meetings or published in scientific journals. Pressing the ""Y"" key indicates that you are at least 18 years of age, and agree to complete this HIT voluntarily. Press the ""Y"" key to confirm your agreement and continue.</p></div>",y,"""","""",2022-01-25 02:03:25,52.128.53.190,"Mozilla/5.0 (Windows NT 10.0; Win64; x64) AppleWebKit/537.36 (KHTML, like Gecko) Chrome/97.0.4692.71 Safari/537.36",WebKit,Chrome,97.0.4692.71,Windows,10.0,7b8458fb558ed8aeae2461372fcc99b6
10,1,"""","""","""","""","""",survey-text,3,57914,0.0-3.0,v75yhwwna,51297,"""","{""instructions1"":""To collect water and then bring it back to the wooden storage buckets.""}",instructions,"""",2022-01-25 02:03:25,52.128.53.190,"Mozilla/5.0 (Windows NT 10.0; Win64; x64) AppleWebKit/537.36 (KHTML, like Gecko) Chrome/97.0.4692.71 Safari/537.36",WebKit,Chrome,97.0.4692.71,Windows,10.0,7b8458fb558ed8aeae2461372fcc99b6
10,1,"""","""","""","""","""",survey-text,4,100777,0.0-4.0,v75yhwwna,42857,"""","{""instructions2"":""1""}",instructions,"""",2022-01-25 02:03:25,52.128.53.190,"Mozilla/5.0 (Windows NT 10.0; Win64; x64) AppleWebKit/537.36 (KHTML, like Gecko) Chrome/97.0.4692.71 Safari/537.36",WebKit,Chrome,97.0.4692.71,Windows,10.0,7b8458fb558ed8aeae2461372fcc99b6
10,1,"""","""","""","""","""",survey-text,5,178194,0.0-5.0,v75yhwwna,77416,"""","{""instructions4"":""Think about what will happen next""}",instructions,"""",2022-01-25 02:03:25,52.128.53.190,"Mozilla/5.0 (Windows NT 10.0; Win64; x64) AppleWebKit/537.36 (KHTML, like Gecko) Chrome/97.0.4692.71 Safari/537.36",WebKit,Chrome,97.0.4692.71,Windows,10.0,7b8458fb558ed8aeae2461372fcc99b6
10,1,"""","""","""","""","""",video-button-response,6,201165,0.0-6.0,v75yhwwna,22968,"[""video/maybe_line_new_4_1cut.mp4""]",1,maybe_1,video/maybe_line_new_4_1cut.mp4,2022-01-25 02:03:25,52.128.53.190,"Mozilla/5.0 (Windows NT 10.0; Win64; x64) AppleWebKit/537.36 (KHTML, like Gecko) Chrome/97.0.4692.71 Safari/537.36",WebKit,Chrome,97.0.4692.71,Windows,10.0,7b8458fb558ed8aeae2461372fcc99b6
10,1,"""","""","""","""","""",video-button-response,7,215485,0.0-7.0,v75yhwwna,14319,"[""video/yes_line_7_1cut.mp4""]",1,yes_1,video/yes_line_7_1cut.mp4,2022-01-25 02:03:25,52.128.53.190,"Mozilla/5.0 (Windows NT 10.0; Win64; x64) AppleWebKit/537.36 (KHTML, like Gecko) Chrome/97.0.4692.71 Safari/537.36",WebKit,Chrome,97.0.4692.71,Windows,10.0,7b8458fb558ed8aeae2461372fcc99b6
10,1,"""","""","""","""","""",video-button-response,8,235143,0.0-8.0,v75yhwwna,19657,"[""video/yes_line_9_1cut.mp4""]",1,yes_1,video/yes_line_9_1cut.mp4,2022-01-25 02:03:25,52.128.53.190,"Mozilla/5.0 (Windows NT 10.0; Win64; x64) AppleWebKit/537.36 (KHTML, like Gecko) Chrome/97.0.4692.71 Safari/537.36",WebKit,Chrome,97.0.4692.71,Windows,10.0,7b8458fb558ed8aeae2461372fcc99b6
10,1,"""","""","""","""","""",video-button-response,9,241821,0.0-9.0,v75yhwwna,6676,"[""video/maybe_line_new_2_1cut.mp4""]",0,maybe_1,video/maybe_line_new_2_1cut.mp4,2022-01-25 02:03:25,52.128.53.190,"Mozilla/5.0 (Windows NT 10.0; Win64; x64) AppleWebKit/537.36 (KHTML, like Gecko) Chrome/97.0.4692.71 Safari/537.36",WebKit,Chrome,97.0.4692.71,Windows,10.0,7b8458fb558ed8aeae2461372fcc99b6
10,1,"""","""","""","""","""",video-button-response,10,250814,0.0-10.0,v75yhwwna,8992,"[""video/no_line_1_1cut.mp4""]",1,no_1,video/no_line_1_1cut.mp4,2022-01-25 02:03:25,52.128.53.190,"Mozilla/5.0 (Windows NT 10.0; Win64; x64) AppleWebKit/537.36 (KHTML, like Gecko) Chrome/97.0.4692.71 Safari/537.36",WebKit,Chrome,97.0.4692.71,Windows,10.0,7b8458fb558ed8aeae2461372fcc99b6
10,1,"""","""","""","""","""",video-button-response,11,261470,0.0-11.0,v75yhwwna,10655,"[""video/maybe_line_new_1_1cut.mp4""]",0,maybe_1,video/maybe_line_new_1_1cut.mp4,2022-01-25 02:03:25,52.128.53.190,"Mozilla/5.0 (Windows NT 10.0; Win64; x64) AppleWebKit/537.36 (KHTML, like Gecko) Chrome/97.0.4692.71 Safari/537.36",WebKit,Chrome,97.0.4692.71,Windows,10.0,7b8458fb558ed8aeae2461372fcc99b6
10,1,"""","""","""","""","""",video-button-response,12,274718,0.0-12.0,v75yhwwna,13246,"[""video/yes_line_10_1cut.mp4""]",0,yes_1,video/yes_line_10_1cut.mp4,2022-01-25 02:03:25,52.128.53.190,"Mozilla/5.0 (Windows NT 10.0; Win64; x64) AppleWebKit/537.36 (KHTML, like Gecko) Chrome/97.0.4692.71 Safari/537.36",WebKit,Chrome,97.0.4692.71,Windows,10.0,7b8458fb558ed8aeae2461372fcc99b6
10,1,"""","""","""","""","""",video-button-response,13,281643,0.0-13.0,v75yhwwna,6924,"[""video/maybe_line_new_5_1cut.mp4""]",0,maybe_1,video/maybe_line_new_5_1cut.mp4,2022-01-25 02:03:25,52.128.53.190,"Mozilla/5.0 (Windows NT 10.0; Win64; x64) AppleWebKit/537.36 (KHTML, like Gecko) Chrome/97.0.4692.71 Safari/537.36",WebKit,Chrome,97.0.4692.71,Windows,10.0,7b8458fb558ed8aeae2461372fcc99b6
10,1,"""","""","""","""","""",video-button-response,14,291707,0.0-14.0,v75yhwwna,10062,"[""video/maybe_line_new_6_1cut.mp4""]",0,maybe_1,video/maybe_line_new_6_1cut.mp4,2022-01-25 02:03:25,52.128.53.190,"Mozilla/5.0 (Windows NT 10.0; Win64; x64) AppleWebKit/537.36 (KHTML, like Gecko) Chrome/97.0.4692.71 Safari/537.36",WebKit,Chrome,97.0.4692.71,Windows,10.0,7b8458fb558ed8aeae2461372fcc99b6
10,1,"""","""","""","""","""",video-button-response,15,303167,0.0-15.0,v75yhwwna,11459,"[""video/no_line_2_1cut.mp4""]",1,no_1,video/no_line_2_1cut.mp4,2022-01-25 02:03:25,52.128.53.190,"Mozilla/5.0 (Windows NT 10.0; Win64; x64) AppleWebKit/537.36 (KHTML, like Gecko) Chrome/97.0.4692.71 Safari/537.36",WebKit,Chrome,97.0.4692.71,Windows,10.0,7b8458fb558ed8aeae2461372fcc99b6
10,1,"""","""","""","""","""",video-button-response,16,312008,0.0-16.0,v75yhwwna,8839,"[""video/no_line_3_1cut.mp4""]",1,no_1,video/no_line_3_1cut.mp4,2022-01-25 02:03:25,52.128.53.190,"Mozilla/5.0 (Windows NT 10.0; Win64; x64) AppleWebKit/537.36 (KHTML, like Gecko) Chrome/97.0.4692.71 Safari/537.36",WebKit,Chrome,97.0.4692.71,Windows,10.0,7b8458fb558ed8aeae2461372fcc99b6
10,1,"""","""","""","""","""",video-button-response,17,320030,0.0-17.0,v75yhwwna,8022,"[""video/maybe_line_new_3_1cut.mp4""]",1,maybe_1,video/maybe_line_new_3_1cut.mp4,2022-01-25 02:03:25,52.128.53.190,"Mozilla/5.0 (Windows NT 10.0; Win64; x64) AppleWebKit/537.36 (KHTML, like Gecko) Chrome/97.0.4692.71 Safari/537.36",WebKit,Chrome,97.0.4692.71,Windows,10.0,7b8458fb558ed8aeae2461372fcc99b6
10,1,"""","""","""","""","""",video-button-response,18,326475,0.0-18.0,v75yhwwna,6443,"[""video/yes_line_8_1cut.mp4""]",0,yes_1,video/yes_line_8_1cut.mp4,2022-01-25 02:03:25,52.128.53.190,"Mozilla/5.0 (Windows NT 10.0; Win64; x64) AppleWebKit/537.36 (KHTML, like Gecko) Chrome/97.0.4692.71 Safari/537.36",WebKit,Chrome,97.0.4692.71,Windows,10.0,7b8458fb558ed8aeae2461372fcc99b6
10,1,"""","""","""","""","""",survey-html-form,19,396738,0.0-19.0,v75yhwwna,70263,"""","[{""name"":""understand"",""value"":""yes""},{""name"":""problems"",""value"":""No problems.""},{""name"":""age"",""value"":""28""},{""name"":""gender"",""value"":""male""},{""name"":""comments"",""value"":""That was pretty fast. I would suggest not autoplaying the video so people won't have to repeat it because it can be hard to see the character you want us to look for and then focus on a 5 second video in one go. You should let the user start the video on their own.""}]",debrief,"""",2022-01-25 02:03:25,52.128.53.190,"Mozilla/5.0 (Windows NT 10.0; Win64; x64) AppleWebKit/537.36 (KHTML, like Gecko) Chrome/97.0.4692.71 Safari/537.36",WebKit,Chrome,97.0.4692.71,Windows,10.0,7b8458fb558ed8aeae2461372fcc99b6
10,1,"""","""","""","""","""",html-keyboard-response,20,404844,0.0-20.0,v75yhwwna,8105,"<div style=""font-size:20px;"">This task is now over. The completion code is: v75yhwwna Press space after you have the completion code to finish. Thank you for your participation! </div>", ,"""","""",2022-01-25 02:03:25,52.128.53.190,"Mozilla/5.0 (Windows NT 10.0; Win64; x64) AppleWebKit/537.36 (KHTML, like Gecko) Chrome/97.0.4692.71 Safari/537.36",WebKit,Chrome,97.0.4692.71,Windows,10.0,7b8458fb558ed8aeae2461372fcc99b6
16,1,true,false,[],[],[],preload,0,689,0.0-0.0,j5dmp4kqq,"""","""","""","""","""",2022-01-25 02:08:41,173.21.196.105,"Mozilla/5.0 (Windows NT 10.0; Win64; x64) AppleWebKit/537.36 (KHTML, like Gecko) Chrome/97.0.4692.99 Safari/537.36",WebKit,Chrome,97.0.4692.99,Windows,10.0,7b8458fb558ed8aeae2461372fcc99b6
16,1,"""","""","""","""","""",html-keyboard-response,1,2065,0.0-1.0,j5dmp4kqq,1373,"<p style=""text-align:center;width:700px;""> Welcome to the experiment! This study takes most people around 15 minutes to complete. Please complete it in one sitting.</p>", ,"""","""",2022-01-25 02:08:41,173.21.196.105,"Mozilla/5.0 (Windows NT 10.0; Win64; x64) AppleWebKit/537.36 (KHTML, like Gecko) Chrome/97.0.4692.99 Safari/537.36",WebKit,Chrome,97.0.4692.99,Windows,10.0,7b8458fb558ed8aeae2461372fcc99b6
16,1,"""","""","""","""","""",html-keyboard-response,2,3691,0.0-2.0,j5dmp4kqq,1625,"<p style = ""font-size:16px;"">MIT Computational Cognitive Science Lab</p><h4>Press the 'y' key to consent.</h4><div style = ""background-color:#f2f2f2;""><h3>Informed Consent Form</h3><div style=""text-align:left;width:700px;""><p style = ""font-size:16px;"">In this HIT, you will be asked to read a set of instructions that describe a particular scenario, and you will then be asked to perform a simple task relating to that scenario. There will also be comprehension and attention checks. Participants who do not answer these checks correctly cannot be approved. In order to get credit for this HIT, you must read all the questions fully and answer honestly. You may only complete this HIT once. If you complete this HIT multiple times, you will be rejected.</p><p style = ""font-size:16px;"">This HIT is part of a MIT scientific research project. Your decision to complete this HIT is voluntary. There is no way for us to identify you. The only information we will have, in addition to your responses, is the time at which you completed the survey. The results of the research may be presented at scientific meetings or published in scientific journals. Pressing the ""Y"" key indicates that you are at least 18 years of age, and agree to complete this HIT voluntarily. Press the ""Y"" key to confirm your agreement and continue.</p></div>",y,"""","""",2022-01-25 02:08:41,173.21.196.105,"Mozilla/5.0 (Windows NT 10.0; Win64; x64) AppleWebKit/537.36 (KHTML, like Gecko) Chrome/97.0.4692.99 Safari/537.36",WebKit,Chrome,97.0.4692.99,Windows,10.0,7b8458fb558ed8aeae2461372fcc99b6
16,1,"""","""","""","""","""",survey-text,3,48277,0.0-3.0,j5dmp4kqq,44581,"""","{""instructions1"":""To bring a bucket of water to their storage bucket as quickly as possible.""}",instructions,"""",2022-01-25 02:08:41,173.21.196.105,"Mozilla/5.0 (Windows NT 10.0; Win64; x64) AppleWebKit/537.36 (KHTML, like Gecko) Chrome/97.0.4692.99 Safari/537.36",WebKit,Chrome,97.0.4692.99,Windows,10.0,7b8458fb558ed8aeae2461372fcc99b6
16,1,"""","""","""","""","""",survey-text,4,62170,0.0-4.0,j5dmp4kqq,13883,"""","{""instructions2"":""1""}",instructions,"""",2022-01-25 02:08:41,173.21.196.105,"Mozilla/5.0 (Windows NT 10.0; Win64; x64) AppleWebKit/537.36 (KHTML, like Gecko) Chrome/97.0.4692.99 Safari/537.36",WebKit,Chrome,97.0.4692.99,Windows,10.0,7b8458fb558ed8aeae2461372fcc99b6
16,1,"""","""","""","""","""",survey-text,5,123319,0.0-5.0,j5dmp4kqq,61147,"""","{""instructions4"":""think before I make my judgements""}",instructions,"""",2022-01-25 02:08:41,173.21.196.105,"Mozilla/5.0 (Windows NT 10.0; Win64; x64) AppleWebKit/537.36 (KHTML, like Gecko) Chrome/97.0.4692.99 Safari/537.36",WebKit,Chrome,97.0.4692.99,Windows,10.0,7b8458fb558ed8aeae2461372fcc99b6
16,1,"""","""","""","""","""",video-button-response,6,131204,0.0-6.0,j5dmp4kqq,7881,"[""video/no_line_1_1cut.mp4""]",1,no_1,video/no_line_1_1cut.mp4,2022-01-25 02:08:41,173.21.196.105,"Mozilla/5.0 (Windows NT 10.0; Win64; x64) AppleWebKit/537.36 (KHTML, like Gecko) Chrome/97.0.4692.99 Safari/537.36",WebKit,Chrome,97.0.4692.99,Windows,10.0,7b8458fb558ed8aeae2461372fcc99b6
16,1,"""","""","""","""","""",video-button-response,7,138216,0.0-7.0,j5dmp4kqq,7009,"[""video/maybe_line_new_3_1cut.mp4""]",1,maybe_1,video/maybe_line_new_3_1cut.mp4,2022-01-25 02:08:41,173.21.196.105,"Mozilla/5.0 (Windows NT 10.0; Win64; x64) AppleWebKit/537.36 (KHTML, like Gecko) Chrome/97.0.4692.99 Safari/537.36",WebKit,Chrome,97.0.4692.99,Windows,10.0,7b8458fb558ed8aeae2461372fcc99b6
16,1,"""","""","""","""","""",video-button-response,8,149074,0.0-8.0,j5dmp4kqq,10855,"[""video/yes_line_10_1cut.mp4""]",0,yes_1,video/yes_line_10_1cut.mp4,2022-01-25 02:08:41,173.21.196.105,"Mozilla/5.0 (Windows NT 10.0; Win64; x64) AppleWebKit/537.36 (KHTML, like Gecko) Chrome/97.0.4692.99 Safari/537.36",WebKit,Chrome,97.0.4692.99,Windows,10.0,7b8458fb558ed8aeae2461372fcc99b6
16,1,"""","""","""","""","""",video-button-response,9,163510,0.0-9.0,j5dmp4kqq,14434,"[""video/maybe_line_new_4_1cut.mp4""]",1,maybe_1,video/maybe_line_new_4_1cut.mp4,2022-01-25 02:08:41,173.21.196.105,"Mozilla/5.0 (Windows NT 10.0; Win64; x64) AppleWebKit/537.36 (KHTML, like Gecko) Chrome/97.0.4692.99 Safari/537.36",WebKit,Chrome,97.0.4692.99,Windows,10.0,7b8458fb558ed8aeae2461372fcc99b6
16,1,"""","""","""","""","""",video-button-response,10,172465,0.0-10.0,j5dmp4kqq,8952,"[""video/no_line_2_1cut.mp4""]",1,no_1,video/no_line_2_1cut.mp4,2022-01-25 02:08:41,173.21.196.105,"Mozilla/5.0 (Windows NT 10.0; Win64; x64) AppleWebKit/537.36 (KHTML, like Gecko) Chrome/97.0.4692.99 Safari/537.36",WebKit,Chrome,97.0.4692.99,Windows,10.0,7b8458fb558ed8aeae2461372fcc99b6
16,1,"""","""","""","""","""",video-button-response,11,184915,0.0-11.0,j5dmp4kqq,12447,"[""video/yes_line_8_1cut.mp4""]",0,yes_1,video/yes_line_8_1cut.mp4,2022-01-25 02:08:41,173.21.196.105,"Mozilla/5.0 (Windows NT 10.0; Win64; x64) AppleWebKit/537.36 (KHTML, like Gecko) Chrome/97.0.4692.99 Safari/537.36",WebKit,Chrome,97.0.4692.99,Windows,10.0,7b8458fb558ed8aeae2461372fcc99b6
16,1,"""","""","""","""","""",video-button-response,12,212593,0.0-12.0,j5dmp4kqq,27674,"[""video/maybe_line_new_1_1cut.mp4""]",1,maybe_1,video/maybe_line_new_1_1cut.mp4,2022-01-25 02:08:41,173.21.196.105,"Mozilla/5.0 (Windows NT 10.0; Win64; x64) AppleWebKit/537.36 (KHTML, like Gecko) Chrome/97.0.4692.99 Safari/537.36",WebKit,Chrome,97.0.4692.99,Windows,10.0,7b8458fb558ed8aeae2461372fcc99b6
16,1,"""","""","""","""","""",video-button-response,13,234445,0.0-13.0,j5dmp4kqq,21849,"[""video/yes_line_9_1cut.mp4""]",0,yes_1,video/yes_line_9_1cut.mp4,2022-01-25 02:08:41,173.21.196.105,"Mozilla/5.0 (Windows NT 10.0; Win64; x64) AppleWebKit/537.36 (KHTML, like Gecko) Chrome/97.0.4692.99 Safari/537.36",WebKit,Chrome,97.0.4692.99,Windows,10.0,7b8458fb558ed8aeae2461372fcc99b6
16,1,"""","""","""","""","""",video-button-response,14,242299,0.0-14.0,j5dmp4kqq,7851,"[""video/yes_line_7_1cut.mp4""]",0,yes_1,video/yes_line_7_1cut.mp4,2022-01-25 02:08:41,173.21.196.105,"Mozilla/5.0 (Windows NT 10.0; Win64; x64) AppleWebKit/537.36 (KHTML, like Gecko) Chrome/97.0.4692.99 Safari/537.36",WebKit,Chrome,97.0.4692.99,Windows,10.0,7b8458fb558ed8aeae2461372fcc99b6
16,1,"""","""","""","""","""",video-button-response,15,253222,0.0-15.0,j5dmp4kqq,10922,"[""video/maybe_line_new_5_1cut.mp4""]",0,maybe_1,video/maybe_line_new_5_1cut.mp4,2022-01-25 02:08:41,173.21.196.105,"Mozilla/5.0 (Windows NT 10.0; Win64; x64) AppleWebKit/537.36 (KHTML, like Gecko) Chrome/97.0.4692.99 Safari/537.36",WebKit,Chrome,97.0.4692.99,Windows,10.0,7b8458fb558ed8aeae2461372fcc99b6
16,1,"""","""","""","""","""",video-button-response,16,265567,0.0-16.0,j5dmp4kqq,12342,"[""video/maybe_line_new_6_1cut.mp4""]",0,maybe_1,video/maybe_line_new_6_1cut.mp4,2022-01-25 02:08:41,173.21.196.105,"Mozilla/5.0 (Windows NT 10.0; Win64; x64) AppleWebKit/537.36 (KHTML, like Gecko) Chrome/97.0.4692.99 Safari/537.36",WebKit,Chrome,97.0.4692.99,Windows,10.0,7b8458fb558ed8aeae2461372fcc99b6
16,1,"""","""","""","""","""",video-button-response,17,275977,0.0-17.0,j5dmp4kqq,10407,"[""video/no_line_3_1cut.mp4""]",1,no_1,video/no_line_3_1cut.mp4,2022-01-25 02:08:41,173.21.196.105,"Mozilla/5.0 (Windows NT 10.0; Win64; x64) AppleWebKit/537.36 (KHTML, like Gecko) Chrome/97.0.4692.99 Safari/537.36",WebKit,Chrome,97.0.4692.99,Windows,10.0,7b8458fb558ed8aeae2461372fcc99b6
16,1,"""","""","""","""","""",video-button-response,18,287432,0.0-18.0,j5dmp4kqq,11453,"[""video/maybe_line_new_2_1cut.mp4""]",1,maybe_1,video/maybe_line_new_2_1cut.mp4,2022-01-25 02:08:41,173.21.196.105,"Mozilla/5.0 (Windows NT 10.0; Win64; x64) AppleWebKit/537.36 (KHTML, like Gecko) Chrome/97.0.4692.99 Safari/537.36",WebKit,Chrome,97.0.4692.99,Windows,10.0,7b8458fb558ed8aeae2461372fcc99b6
16,1,"""","""","""","""","""",survey-html-form,19,302443,0.0-19.0,j5dmp4kqq,15010,"""","[{""name"":""understand"",""value"":""yes""},{""name"":""problems"",""value"":""none""},{""name"":""age"",""value"":""54""},{""name"":""gender"",""value"":""female""},{""name"":""comments"",""value"":""no comments""}]",debrief,"""",2022-01-25 02:08:41,173.21.196.105,"Mozilla/5.0 (Windows NT 10.0; Win64; x64) AppleWebKit/537.36 (KHTML, like Gecko) Chrome/97.0.4692.99 Safari/537.36",WebKit,Chrome,97.0.4692.99,Windows,10.0,7b8458fb558ed8aeae2461372fcc99b6
16,1,"""","""","""","""","""",html-keyboard-response,20,317059,0.0-20.0,j5dmp4kqq,14614,"<div style=""font-size:20px;"">This task is now over. The completion code is: j5dmp4kqq Press space after you have the completion code to finish. Thank you for your participation! </div>", ,"""","""",2022-01-25 02:08:41,173.21.196.105,"Mozilla/5.0 (Windows NT 10.0; Win64; x64) AppleWebKit/537.36 (KHTML, like Gecko) Chrome/97.0.4692.99 Safari/537.36",WebKit,Chrome,97.0.4692.99,Windows,10.0,7b8458fb558ed8aeae2461372fcc99b6
12,1,true,false,[],[],[],preload,0,867,0.0-0.0,k96vhlpy0,"""","""","""","""","""",2022-01-25 02:05:39,174.86.56.150,"Mozilla/5.0 (Windows NT 10.0; Win64; x64) AppleWebKit/537.36 (KHTML, like Gecko) Chrome/97.0.4692.71 Safari/537.36",WebKit,Chrome,97.0.4692.71,Windows,10.0,7b8458fb558ed8aeae2461372fcc99b6
12,1,"""","""","""","""","""",html-keyboard-response,1,3587,0.0-1.0,k96vhlpy0,2718,"<p style=""text-align:center;width:700px;""> Welcome to the experiment! This study takes most people around 15 minutes to complete. Please complete it in one sitting.</p>", ,"""","""",2022-01-25 02:05:39,174.86.56.150,"Mozilla/5.0 (Windows NT 10.0; Win64; x64) AppleWebKit/537.36 (KHTML, like Gecko) Chrome/97.0.4692.71 Safari/537.36",WebKit,Chrome,97.0.4692.71,Windows,10.0,7b8458fb558ed8aeae2461372fcc99b6
12,1,"""","""","""","""","""",html-keyboard-response,2,6210,0.0-2.0,k96vhlpy0,2622,"<p style = ""font-size:16px;"">MIT Computational Cognitive Science Lab</p><h4>Press the 'y' key to consent.</h4><div style = ""background-color:#f2f2f2;""><h3>Informed Consent Form</h3><div style=""text-align:left;width:700px;""><p style = ""font-size:16px;"">In this HIT, you will be asked to read a set of instructions that describe a particular scenario, and you will then be asked to perform a simple task relating to that scenario. There will also be comprehension and attention checks. Participants who do not answer these checks correctly cannot be approved. In order to get credit for this HIT, you must read all the questions fully and answer honestly. You may only complete this HIT once. If you complete this HIT multiple times, you will be rejected.</p><p style = ""font-size:16px;"">This HIT is part of a MIT scientific research project. Your decision to complete this HIT is voluntary. There is no way for us to identify you. The only information we will have, in addition to your responses, is the time at which you completed the survey. The results of the research may be presented at scientific meetings or published in scientific journals. Pressing the ""Y"" key indicates that you are at least 18 years of age, and agree to complete this HIT voluntarily. Press the ""Y"" key to confirm your agreement and continue.</p></div>",y,"""","""",2022-01-25 02:05:39,174.86.56.150,"Mozilla/5.0 (Windows NT 10.0; Win64; x64) AppleWebKit/537.36 (KHTML, like Gecko) Chrome/97.0.4692.71 Safari/537.36",WebKit,Chrome,97.0.4692.71,Windows,10.0,7b8458fb558ed8aeae2461372fcc99b6
12,1,"""","""","""","""","""",survey-text,3,32235,0.0-3.0,k96vhlpy0,26020,"""","{""instructions1"":""collect water from a water source ""}",instructions,"""",2022-01-25 02:05:39,174.86.56.150,"Mozilla/5.0 (Windows NT 10.0; Win64; x64) AppleWebKit/537.36 (KHTML, like Gecko) Chrome/97.0.4692.71 Safari/537.36",WebKit,Chrome,97.0.4692.71,Windows,10.0,7b8458fb558ed8aeae2461372fcc99b6
12,1,"""","""","""","""","""",survey-text,4,52295,0.0-4.0,k96vhlpy0,20055,"""","{""instructions2"":""one""}",instructions,"""",2022-01-25 02:05:39,174.86.56.150,"Mozilla/5.0 (Windows NT 10.0; Win64; x64) AppleWebKit/537.36 (KHTML, like Gecko) Chrome/97.0.4692.71 Safari/537.36",WebKit,Chrome,97.0.4692.71,Windows,10.0,7b8458fb558ed8aeae2461372fcc99b6
12,1,"""","""","""","""","""",survey-text,5,89115,0.0-5.0,k96vhlpy0,36818,"""","{""instructions4"":""think about what will happen next as a result""}",instructions,"""",2022-01-25 02:05:39,174.86.56.150,"Mozilla/5.0 (Windows NT 10.0; Win64; x64) AppleWebKit/537.36 (KHTML, like Gecko) Chrome/97.0.4692.71 Safari/537.36",WebKit,Chrome,97.0.4692.71,Windows,10.0,7b8458fb558ed8aeae2461372fcc99b6
12,1,"""","""","""","""","""",video-button-response,6,113745,0.0-6.0,k96vhlpy0,24627,"[""video/yes_line_8_1cut.mp4""]",0,yes_1,video/yes_line_8_1cut.mp4,2022-01-25 02:05:39,174.86.56.150,"Mozilla/5.0 (Windows NT 10.0; Win64; x64) AppleWebKit/537.36 (KHTML, like Gecko) Chrome/97.0.4692.71 Safari/537.36",WebKit,Chrome,97.0.4692.71,Windows,10.0,7b8458fb558ed8aeae2461372fcc99b6
12,1,"""","""","""","""","""",video-button-response,7,140326,0.0-7.0,k96vhlpy0,26579,"[""video/maybe_line_new_1_1cut.mp4""]",0,maybe_1,video/maybe_line_new_1_1cut.mp4,2022-01-25 02:05:39,174.86.56.150,"Mozilla/5.0 (Windows NT 10.0; Win64; x64) AppleWebKit/537.36 (KHTML, like Gecko) Chrome/97.0.4692.71 Safari/537.36",WebKit,Chrome,97.0.4692.71,Windows,10.0,7b8458fb558ed8aeae2461372fcc99b6
12,1,"""","""","""","""","""",video-button-response,8,156290,0.0-8.0,k96vhlpy0,15963,"[""video/maybe_line_new_4_1cut.mp4""]",1,maybe_1,video/maybe_line_new_4_1cut.mp4,2022-01-25 02:05:39,174.86.56.150,"Mozilla/5.0 (Windows NT 10.0; Win64; x64) AppleWebKit/537.36 (KHTML, like Gecko) Chrome/97.0.4692.71 Safari/537.36",WebKit,Chrome,97.0.4692.71,Windows,10.0,7b8458fb558ed8aeae2461372fcc99b6
12,1,"""","""","""","""","""",video-button-response,9,185009,0.0-9.0,k96vhlpy0,28716,"[""video/maybe_line_new_6_1cut.mp4""]",1,maybe_1,video/maybe_line_new_6_1cut.mp4,2022-01-25 02:05:39,174.86.56.150,"Mozilla/5.0 (Windows NT 10.0; Win64; x64) AppleWebKit/537.36 (KHTML, like Gecko) Chrome/97.0.4692.71 Safari/537.36",WebKit,Chrome,97.0.4692.71,Windows,10.0,7b8458fb558ed8aeae2461372fcc99b6
12,1,"""","""","""","""","""",video-button-response,10,199256,0.0-10.0,k96vhlpy0,14246,"[""video/no_line_2_1cut.mp4""]",1,no_1,video/no_line_2_1cut.mp4,2022-01-25 02:05:39,174.86.56.150,"Mozilla/5.0 (Windows NT 10.0; Win64; x64) AppleWebKit/537.36 (KHTML, like Gecko) Chrome/97.0.4692.71 Safari/537.36",WebKit,Chrome,97.0.4692.71,Windows,10.0,7b8458fb558ed8aeae2461372fcc99b6
12,1,"""","""","""","""","""",video-button-response,11,212364,0.0-11.0,k96vhlpy0,13106,"[""video/maybe_line_new_2_1cut.mp4""]",0,maybe_1,video/maybe_line_new_2_1cut.mp4,2022-01-25 02:05:39,174.86.56.150,"Mozilla/5.0 (Windows NT 10.0; Win64; x64) AppleWebKit/537.36 (KHTML, like Gecko) Chrome/97.0.4692.71 Safari/537.36",WebKit,Chrome,97.0.4692.71,Windows,10.0,7b8458fb558ed8aeae2461372fcc99b6
12,1,"""","""","""","""","""",video-button-response,12,222268,0.0-12.0,k96vhlpy0,9903,"[""video/no_line_3_1cut.mp4""]",1,no_1,video/no_line_3_1cut.mp4,2022-01-25 02:05:39,174.86.56.150,"Mozilla/5.0 (Windows NT 10.0; Win64; x64) AppleWebKit/537.36 (KHTML, like Gecko) Chrome/97.0.4692.71 Safari/537.36",WebKit,Chrome,97.0.4692.71,Windows,10.0,7b8458fb558ed8aeae2461372fcc99b6
12,1,"""","""","""","""","""",video-button-response,13,230680,0.0-13.0,k96vhlpy0,8410,"[""video/no_line_1_1cut.mp4""]",1,no_1,video/no_line_1_1cut.mp4,2022-01-25 02:05:39,174.86.56.150,"Mozilla/5.0 (Windows NT 10.0; Win64; x64) AppleWebKit/537.36 (KHTML, like Gecko) Chrome/97.0.4692.71 Safari/537.36",WebKit,Chrome,97.0.4692.71,Windows,10.0,7b8458fb558ed8aeae2461372fcc99b6
12,1,"""","""","""","""","""",video-button-response,14,239455,0.0-14.0,k96vhlpy0,8773,"[""video/yes_line_7_1cut.mp4""]",0,yes_1,video/yes_line_7_1cut.mp4,2022-01-25 02:05:39,174.86.56.150,"Mozilla/5.0 (Windows NT 10.0; Win64; x64) AppleWebKit/537.36 (KHTML, like Gecko) Chrome/97.0.4692.71 Safari/537.36",WebKit,Chrome,97.0.4692.71,Windows,10.0,7b8458fb558ed8aeae2461372fcc99b6
12,1,"""","""","""","""","""",video-button-response,15,252305,0.0-15.0,k96vhlpy0,12848,"[""video/yes_line_9_1cut.mp4""]",0,yes_1,video/yes_line_9_1cut.mp4,2022-01-25 02:05:39,174.86.56.150,"Mozilla/5.0 (Windows NT 10.0; Win64; x64) AppleWebKit/537.36 (KHTML, like Gecko) Chrome/97.0.4692.71 Safari/537.36",WebKit,Chrome,97.0.4692.71,Windows,10.0,7b8458fb558ed8aeae2461372fcc99b6
12,1,"""","""","""","""","""",video-button-response,16,264437,0.0-16.0,k96vhlpy0,12130,"[""video/maybe_line_new_5_1cut.mp4""]",0,maybe_1,video/maybe_line_new_5_1cut.mp4,2022-01-25 02:05:39,174.86.56.150,"Mozilla/5.0 (Windows NT 10.0; Win64; x64) AppleWebKit/537.36 (KHTML, like Gecko) Chrome/97.0.4692.71 Safari/537.36",WebKit,Chrome,97.0.4692.71,Windows,10.0,7b8458fb558ed8aeae2461372fcc99b6
12,1,"""","""","""","""","""",video-button-response,17,271678,0.0-17.0,k96vhlpy0,7240,"[""video/yes_line_10_1cut.mp4""]",0,yes_1,video/yes_line_10_1cut.mp4,2022-01-25 02:05:39,174.86.56.150,"Mozilla/5.0 (Windows NT 10.0; Win64; x64) AppleWebKit/537.36 (KHTML, like Gecko) Chrome/97.0.4692.71 Safari/537.36",WebKit,Chrome,97.0.4692.71,Windows,10.0,7b8458fb558ed8aeae2461372fcc99b6
12,1,"""","""","""","""","""",video-button-response,18,280671,0.0-18.0,k96vhlpy0,8991,"[""video/maybe_line_new_3_1cut.mp4""]",1,maybe_1,video/maybe_line_new_3_1cut.mp4,2022-01-25 02:05:39,174.86.56.150,"Mozilla/5.0 (Windows NT 10.0; Win64; x64) AppleWebKit/537.36 (KHTML, like Gecko) Chrome/97.0.4692.71 Safari/537.36",WebKit,Chrome,97.0.4692.71,Windows,10.0,7b8458fb558ed8aeae2461372fcc99b6
12,1,"""","""","""","""","""",survey-html-form,19,294713,0.0-19.0,k96vhlpy0,14041,"""","[{""name"":""understand"",""value"":""yes""},{""name"":""problems"",""value"":""no issues""},{""name"":""age"",""value"":""47""},{""name"":""gender"",""value"":""female""},{""name"":""comments"",""value"":""no comments""}]",debrief,"""",2022-01-25 02:05:39,174.86.56.150,"Mozilla/5.0 (Windows NT 10.0; Win64; x64) AppleWebKit/537.36 (KHTML, like Gecko) Chrome/97.0.4692.71 Safari/537.36",WebKit,Chrome,97.0.4692.71,Windows,10.0,7b8458fb558ed8aeae2461372fcc99b6
12,1,"""","""","""","""","""",html-keyboard-response,20,374369,0.0-20.0,k96vhlpy0,79656,"<div style=""font-size:20px;"">This task is now over. The completion code is: k96vhlpy0 Press space after you have the completion code to finish. Thank you for your participation! </div>", ,"""","""",2022-01-25 02:05:39,174.86.56.150,"Mozilla/5.0 (Windows NT 10.0; Win64; x64) AppleWebKit/537.36 (KHTML, like Gecko) Chrome/97.0.4692.71 Safari/537.36",WebKit,Chrome,97.0.4692.71,Windows,10.0,7b8458fb558ed8aeae2461372fcc99b6
17,1,true,false,[],[],[],preload,0,1397,0.0-0.0,y2t6j3a8m,"""","""","""","""","""",2022-01-25 02:10:44,69.251.108.191,"Mozilla/5.0 (Windows NT 10.0; Win64; x64) AppleWebKit/537.36 (KHTML, like Gecko) Chrome/97.0.4692.71 Safari/537.36",WebKit,Chrome,97.0.4692.71,Windows,10.0,7b8458fb558ed8aeae2461372fcc99b6
17,1,"""","""","""","""","""",html-keyboard-response,1,13641,0.0-1.0,y2t6j3a8m,12237,"<p style=""text-align:center;width:700px;""> Welcome to the experiment! This study takes most people around 15 minutes to complete. Please complete it in one sitting.</p>", ,"""","""",2022-01-25 02:10:44,69.251.108.191,"Mozilla/5.0 (Windows NT 10.0; Win64; x64) AppleWebKit/537.36 (KHTML, like Gecko) Chrome/97.0.4692.71 Safari/537.36",WebKit,Chrome,97.0.4692.71,Windows,10.0,7b8458fb558ed8aeae2461372fcc99b6
17,1,"""","""","""","""","""",html-keyboard-response,2,14991,0.0-2.0,y2t6j3a8m,1346,"<p style = ""font-size:16px;"">MIT Computational Cognitive Science Lab</p><h4>Press the 'y' key to consent.</h4><div style = ""background-color:#f2f2f2;""><h3>Informed Consent Form</h3><div style=""text-align:left;width:700px;""><p style = ""font-size:16px;"">In this HIT, you will be asked to read a set of instructions that describe a particular scenario, and you will then be asked to perform a simple task relating to that scenario. There will also be comprehension and attention checks. Participants who do not answer these checks correctly cannot be approved. In order to get credit for this HIT, you must read all the questions fully and answer honestly. You may only complete this HIT once. If you complete this HIT multiple times, you will be rejected.</p><p style = ""font-size:16px;"">This HIT is part of a MIT scientific research project. Your decision to complete this HIT is voluntary. There is no way for us to identify you. The only information we will have, in addition to your responses, is the time at which you completed the survey. The results of the research may be presented at scientific meetings or published in scientific journals. Pressing the ""Y"" key indicates that you are at least 18 years of age, and agree to complete this HIT voluntarily. Press the ""Y"" key to confirm your agreement and continue.</p></div>",y,"""","""",2022-01-25 02:10:44,69.251.108.191,"Mozilla/5.0 (Windows NT 10.0; Win64; x64) AppleWebKit/537.36 (KHTML, like Gecko) Chrome/97.0.4692.71 Safari/537.36",WebKit,Chrome,97.0.4692.71,Windows,10.0,7b8458fb558ed8aeae2461372fcc99b6
17,1,"""","""","""","""","""",survey-text,3,76172,0.0-3.0,y2t6j3a8m,61142,"""","{""instructions1"":""To collect water form a water source and bring it back to the wooden storage buckets.""}",instructions,"""",2022-01-25 02:10:44,69.251.108.191,"Mozilla/5.0 (Windows NT 10.0; Win64; x64) AppleWebKit/537.36 (KHTML, like Gecko) Chrome/97.0.4692.71 Safari/537.36",WebKit,Chrome,97.0.4692.71,Windows,10.0,7b8458fb558ed8aeae2461372fcc99b6
17,1,"""","""","""","""","""",survey-text,4,167569,0.0-4.0,y2t6j3a8m,91378,"""","{""instructions2"":""1""}",instructions,"""",2022-01-25 02:10:44,69.251.108.191,"Mozilla/5.0 (Windows NT 10.0; Win64; x64) AppleWebKit/537.36 (KHTML, like Gecko) Chrome/97.0.4692.71 Safari/537.36",WebKit,Chrome,97.0.4692.71,Windows,10.0,7b8458fb558ed8aeae2461372fcc99b6
17,1,"""","""","""","""","""",survey-text,5,237642,0.0-5.0,y2t6j3a8m,70052,"""","{""instructions4"":""Think about what will happen next as a result""}",instructions,"""",2022-01-25 02:10:44,69.251.108.191,"Mozilla/5.0 (Windows NT 10.0; Win64; x64) AppleWebKit/537.36 (KHTML, like Gecko) Chrome/97.0.4692.71 Safari/537.36",WebKit,Chrome,97.0.4692.71,Windows,10.0,7b8458fb558ed8aeae2461372fcc99b6
17,1,"""","""","""","""","""",video-button-response,6,253138,0.0-6.0,y2t6j3a8m,15481,"[""video/maybe_line_new_4_1cut.mp4""]",0,maybe_1,video/maybe_line_new_4_1cut.mp4,2022-01-25 02:10:44,69.251.108.191,"Mozilla/5.0 (Windows NT 10.0; Win64; x64) AppleWebKit/537.36 (KHTML, like Gecko) Chrome/97.0.4692.71 Safari/537.36",WebKit,Chrome,97.0.4692.71,Windows,10.0,7b8458fb558ed8aeae2461372fcc99b6
17,1,"""","""","""","""","""",video-button-response,7,260766,0.0-7.0,y2t6j3a8m,7615,"[""video/maybe_line_new_6_1cut.mp4""]",0,maybe_1,video/maybe_line_new_6_1cut.mp4,2022-01-25 02:10:44,69.251.108.191,"Mozilla/5.0 (Windows NT 10.0; Win64; x64) AppleWebKit/537.36 (KHTML, like Gecko) Chrome/97.0.4692.71 Safari/537.36",WebKit,Chrome,97.0.4692.71,Windows,10.0,7b8458fb558ed8aeae2461372fcc99b6
17,1,"""","""","""","""","""",video-button-response,8,267501,0.0-8.0,y2t6j3a8m,6727,"[""video/yes_line_7_1cut.mp4""]",0,yes_1,video/yes_line_7_1cut.mp4,2022-01-25 02:10:44,69.251.108.191,"Mozilla/5.0 (Windows NT 10.0; Win64; x64) AppleWebKit/537.36 (KHTML, like Gecko) Chrome/97.0.4692.71 Safari/537.36",WebKit,Chrome,97.0.4692.71,Windows,10.0,7b8458fb558ed8aeae2461372fcc99b6
17,1,"""","""","""","""","""",video-button-response,9,276302,0.0-9.0,y2t6j3a8m,8782,"[""video/yes_line_8_1cut.mp4""]",0,yes_1,video/yes_line_8_1cut.mp4,2022-01-25 02:10:44,69.251.108.191,"Mozilla/5.0 (Windows NT 10.0; Win64; x64) AppleWebKit/537.36 (KHTML, like Gecko) Chrome/97.0.4692.71 Safari/537.36",WebKit,Chrome,97.0.4692.71,Windows,10.0,7b8458fb558ed8aeae2461372fcc99b6
17,1,"""","""","""","""","""",video-button-response,10,283237,0.0-10.0,y2t6j3a8m,6931,"[""video/maybe_line_new_3_1cut.mp4""]",1,maybe_1,video/maybe_line_new_3_1cut.mp4,2022-01-25 02:10:44,69.251.108.191,"Mozilla/5.0 (Windows NT 10.0; Win64; x64) AppleWebKit/537.36 (KHTML, like Gecko) Chrome/97.0.4692.71 Safari/537.36",WebKit,Chrome,97.0.4692.71,Windows,10.0,7b8458fb558ed8aeae2461372fcc99b6
17,1,"""","""","""","""","""",video-button-response,11,290394,0.0-11.0,y2t6j3a8m,7143,"[""video/yes_line_10_1cut.mp4""]",0,yes_1,video/yes_line_10_1cut.mp4,2022-01-25 02:10:44,69.251.108.191,"Mozilla/5.0 (Windows NT 10.0; Win64; x64) AppleWebKit/537.36 (KHTML, like Gecko) Chrome/97.0.4692.71 Safari/537.36",WebKit,Chrome,97.0.4692.71,Windows,10.0,7b8458fb558ed8aeae2461372fcc99b6
17,1,"""","""","""","""","""",video-button-response,12,297306,0.0-12.0,y2t6j3a8m,6903,"[""video/maybe_line_new_2_1cut.mp4""]",1,maybe_1,video/maybe_line_new_2_1cut.mp4,2022-01-25 02:10:44,69.251.108.191,"Mozilla/5.0 (Windows NT 10.0; Win64; x64) AppleWebKit/537.36 (KHTML, like Gecko) Chrome/97.0.4692.71 Safari/537.36",WebKit,Chrome,97.0.4692.71,Windows,10.0,7b8458fb558ed8aeae2461372fcc99b6
17,1,"""","""","""","""","""",video-button-response,13,303388,0.0-13.0,y2t6j3a8m,6064,"[""video/no_line_3_1cut.mp4""]",1,no_1,video/no_line_3_1cut.mp4,2022-01-25 02:10:44,69.251.108.191,"Mozilla/5.0 (Windows NT 10.0; Win64; x64) AppleWebKit/537.36 (KHTML, like Gecko) Chrome/97.0.4692.71 Safari/537.36",WebKit,Chrome,97.0.4692.71,Windows,10.0,7b8458fb558ed8aeae2461372fcc99b6
17,1,"""","""","""","""","""",video-button-response,14,309416,0.0-14.0,y2t6j3a8m,6022,"[""video/maybe_line_new_5_1cut.mp4""]",0,maybe_1,video/maybe_line_new_5_1cut.mp4,2022-01-25 02:10:44,69.251.108.191,"Mozilla/5.0 (Windows NT 10.0; Win64; x64) AppleWebKit/537.36 (KHTML, like Gecko) Chrome/97.0.4692.71 Safari/537.36",WebKit,Chrome,97.0.4692.71,Windows,10.0,7b8458fb558ed8aeae2461372fcc99b6
17,1,"""","""","""","""","""",video-button-response,15,316107,0.0-15.0,y2t6j3a8m,6676,"[""video/no_line_1_1cut.mp4""]",0,no_1,video/no_line_1_1cut.mp4,2022-01-25 02:10:44,69.251.108.191,"Mozilla/5.0 (Windows NT 10.0; Win64; x64) AppleWebKit/537.36 (KHTML, like Gecko) Chrome/97.0.4692.71 Safari/537.36",WebKit,Chrome,97.0.4692.71,Windows,10.0,7b8458fb558ed8aeae2461372fcc99b6
17,1,"""","""","""","""","""",video-button-response,16,321118,0.0-16.0,y2t6j3a8m,5001,"[""video/no_line_2_1cut.mp4""]",1,no_1,video/no_line_2_1cut.mp4,2022-01-25 02:10:44,69.251.108.191,"Mozilla/5.0 (Windows NT 10.0; Win64; x64) AppleWebKit/537.36 (KHTML, like Gecko) Chrome/97.0.4692.71 Safari/537.36",WebKit,Chrome,97.0.4692.71,Windows,10.0,7b8458fb558ed8aeae2461372fcc99b6
17,1,"""","""","""","""","""",video-button-response,17,327236,0.0-17.0,y2t6j3a8m,6103,"[""video/yes_line_9_1cut.mp4""]",0,yes_1,video/yes_line_9_1cut.mp4,2022-01-25 02:10:44,69.251.108.191,"Mozilla/5.0 (Windows NT 10.0; Win64; x64) AppleWebKit/537.36 (KHTML, like Gecko) Chrome/97.0.4692.71 Safari/537.36",WebKit,Chrome,97.0.4692.71,Windows,10.0,7b8458fb558ed8aeae2461372fcc99b6
17,1,"""","""","""","""","""",video-button-response,18,337416,0.0-18.0,y2t6j3a8m,10170,"[""video/maybe_line_new_1_1cut.mp4""]",1,maybe_1,video/maybe_line_new_1_1cut.mp4,2022-01-25 02:10:44,69.251.108.191,"Mozilla/5.0 (Windows NT 10.0; Win64; x64) AppleWebKit/537.36 (KHTML, like Gecko) Chrome/97.0.4692.71 Safari/537.36",WebKit,Chrome,97.0.4692.71,Windows,10.0,7b8458fb558ed8aeae2461372fcc99b6
17,1,"""","""","""","""","""",survey-html-form,19,355995,0.0-19.0,y2t6j3a8m,18567,"""","[{""name"":""understand"",""value"":""yes""},{""name"":""problems"",""value"":""No""},{""name"":""age"",""value"":""25""},{""name"":""gender"",""value"":""female""},{""name"":""comments"",""value"":""No""}]",debrief,"""",2022-01-25 02:10:44,69.251.108.191,"Mozilla/5.0 (Windows NT 10.0; Win64; x64) AppleWebKit/537.36 (KHTML, like Gecko) Chrome/97.0.4692.71 Safari/537.36",WebKit,Chrome,97.0.4692.71,Windows,10.0,7b8458fb558ed8aeae2461372fcc99b6
17,1,"""","""","""","""","""",html-keyboard-response,20,386013,0.0-20.0,y2t6j3a8m,30016,"<div style=""font-size:20px;"">This task is now over. The completion code is: y2t6j3a8m Press space after you have the completion code to finish. Thank you for your participation! </div>", ,"""","""",2022-01-25 02:10:44,69.251.108.191,"Mozilla/5.0 (Windows NT 10.0; Win64; x64) AppleWebKit/537.36 (KHTML, like Gecko) Chrome/97.0.4692.71 Safari/537.36",WebKit,Chrome,97.0.4692.71,Windows,10.0,7b8458fb558ed8aeae2461372fcc99b6
13,1,true,false,[],[],[],preload,0,857,0.0-0.0,fgbfsygn3,"""","""","""","""","""",2022-01-25 02:06:48,69.113.168.239,"Mozilla/5.0 (Windows NT 10.0; Win64; x64) AppleWebKit/537.36 (KHTML, like Gecko) Chrome/97.0.4692.99 Safari/537.36",WebKit,Chrome,97.0.4692.99,Windows,10.0,7b8458fb558ed8aeae2461372fcc99b6
13,1,"""","""","""","""","""",html-keyboard-response,1,3231,0.0-1.0,fgbfsygn3,2372,"<p style=""text-align:center;width:700px;""> Welcome to the experiment! This study takes most people around 15 minutes to complete. Please complete it in one sitting.</p>", ,"""","""",2022-01-25 02:06:48,69.113.168.239,"Mozilla/5.0 (Windows NT 10.0; Win64; x64) AppleWebKit/537.36 (KHTML, like Gecko) Chrome/97.0.4692.99 Safari/537.36",WebKit,Chrome,97.0.4692.99,Windows,10.0,7b8458fb558ed8aeae2461372fcc99b6
13,1,"""","""","""","""","""",html-keyboard-response,2,6319,0.0-2.0,fgbfsygn3,3087,"<p style = ""font-size:16px;"">MIT Computational Cognitive Science Lab</p><h4>Press the 'y' key to consent.</h4><div style = ""background-color:#f2f2f2;""><h3>Informed Consent Form</h3><div style=""text-align:left;width:700px;""><p style = ""font-size:16px;"">In this HIT, you will be asked to read a set of instructions that describe a particular scenario, and you will then be asked to perform a simple task relating to that scenario. There will also be comprehension and attention checks. Participants who do not answer these checks correctly cannot be approved. In order to get credit for this HIT, you must read all the questions fully and answer honestly. You may only complete this HIT once. If you complete this HIT multiple times, you will be rejected.</p><p style = ""font-size:16px;"">This HIT is part of a MIT scientific research project. Your decision to complete this HIT is voluntary. There is no way for us to identify you. The only information we will have, in addition to your responses, is the time at which you completed the survey. The results of the research may be presented at scientific meetings or published in scientific journals. Pressing the ""Y"" key indicates that you are at least 18 years of age, and agree to complete this HIT voluntarily. Press the ""Y"" key to confirm your agreement and continue.</p></div>",y,"""","""",2022-01-25 02:06:48,69.113.168.239,"Mozilla/5.0 (Windows NT 10.0; Win64; x64) AppleWebKit/537.36 (KHTML, like Gecko) Chrome/97.0.4692.99 Safari/537.36",WebKit,Chrome,97.0.4692.99,Windows,10.0,7b8458fb558ed8aeae2461372fcc99b6
13,1,"""","""","""","""","""",survey-text,3,90456,0.0-3.0,fgbfsygn3,84132,"""","{""instructions1"":""To collect bucket of water as fast as possible to receive most points.""}",instructions,"""",2022-01-25 02:06:48,69.113.168.239,"Mozilla/5.0 (Windows NT 10.0; Win64; x64) AppleWebKit/537.36 (KHTML, like Gecko) Chrome/97.0.4692.99 Safari/537.36",WebKit,Chrome,97.0.4692.99,Windows,10.0,7b8458fb558ed8aeae2461372fcc99b6
13,1,"""","""","""","""","""",survey-text,4,196583,0.0-4.0,fgbfsygn3,106121,"""","{""instructions2"":""They can move one square per time step in one of the four cardinal directions""}",instructions,"""",2022-01-25 02:06:48,69.113.168.239,"Mozilla/5.0 (Windows NT 10.0; Win64; x64) AppleWebKit/537.36 (KHTML, like Gecko) Chrome/97.0.4692.99 Safari/537.36",WebKit,Chrome,97.0.4692.99,Windows,10.0,7b8458fb558ed8aeae2461372fcc99b6
13,1,"""","""","""","""","""",survey-text,5,279934,0.0-5.0,fgbfsygn3,83349,"""","{""instructions4"":""My job is to think about what will happen next as a result, and make a judgment.""}",instructions,"""",2022-01-25 02:06:48,69.113.168.239,"Mozilla/5.0 (Windows NT 10.0; Win64; x64) AppleWebKit/537.36 (KHTML, like Gecko) Chrome/97.0.4692.99 Safari/537.36",WebKit,Chrome,97.0.4692.99,Windows,10.0,7b8458fb558ed8aeae2461372fcc99b6
13,1,"""","""","""","""","""",video-button-response,6,298564,0.0-6.0,fgbfsygn3,18628,"[""video/maybe_line_new_5_1cut.mp4""]",0,maybe_1,video/maybe_line_new_5_1cut.mp4,2022-01-25 02:06:48,69.113.168.239,"Mozilla/5.0 (Windows NT 10.0; Win64; x64) AppleWebKit/537.36 (KHTML, like Gecko) Chrome/97.0.4692.99 Safari/537.36",WebKit,Chrome,97.0.4692.99,Windows,10.0,7b8458fb558ed8aeae2461372fcc99b6
13,1,"""","""","""","""","""",video-button-response,7,307156,0.0-7.0,fgbfsygn3,8589,"[""video/yes_line_9_1cut.mp4""]",0,yes_1,video/yes_line_9_1cut.mp4,2022-01-25 02:06:48,69.113.168.239,"Mozilla/5.0 (Windows NT 10.0; Win64; x64) AppleWebKit/537.36 (KHTML, like Gecko) Chrome/97.0.4692.99 Safari/537.36",WebKit,Chrome,97.0.4692.99,Windows,10.0,7b8458fb558ed8aeae2461372fcc99b6
13,1,"""","""","""","""","""",video-button-response,8,319179,0.0-8.0,fgbfsygn3,12022,"[""video/maybe_line_new_6_1cut.mp4""]",0,maybe_1,video/maybe_line_new_6_1cut.mp4,2022-01-25 02:06:48,69.113.168.239,"Mozilla/5.0 (Windows NT 10.0; Win64; x64) AppleWebKit/537.36 (KHTML, like Gecko) Chrome/97.0.4692.99 Safari/537.36",WebKit,Chrome,97.0.4692.99,Windows,10.0,7b8458fb558ed8aeae2461372fcc99b6
13,1,"""","""","""","""","""",video-button-response,9,330414,0.0-9.0,fgbfsygn3,11232,"[""video/no_line_2_1cut.mp4""]",0,no_1,video/no_line_2_1cut.mp4,2022-01-25 02:06:48,69.113.168.239,"Mozilla/5.0 (Windows NT 10.0; Win64; x64) AppleWebKit/537.36 (KHTML, like Gecko) Chrome/97.0.4692.99 Safari/537.36",WebKit,Chrome,97.0.4692.99,Windows,10.0,7b8458fb558ed8aeae2461372fcc99b6
13,1,"""","""","""","""","""",video-button-response,10,342668,0.0-10.0,fgbfsygn3,12252,"[""video/maybe_line_new_2_1cut.mp4""]",0,maybe_1,video/maybe_line_new_2_1cut.mp4,2022-01-25 02:06:48,69.113.168.239,"Mozilla/5.0 (Windows NT 10.0; Win64; x64) AppleWebKit/537.36 (KHTML, like Gecko) Chrome/97.0.4692.99 Safari/537.36",WebKit,Chrome,97.0.4692.99,Windows,10.0,7b8458fb558ed8aeae2461372fcc99b6
13,1,"""","""","""","""","""",video-button-response,11,351563,0.0-11.0,fgbfsygn3,8893,"[""video/yes_line_7_1cut.mp4""]",0,yes_1,video/yes_line_7_1cut.mp4,2022-01-25 02:06:48,69.113.168.239,"Mozilla/5.0 (Windows NT 10.0; Win64; x64) AppleWebKit/537.36 (KHTML, like Gecko) Chrome/97.0.4692.99 Safari/537.36",WebKit,Chrome,97.0.4692.99,Windows,10.0,7b8458fb558ed8aeae2461372fcc99b6
13,1,"""","""","""","""","""",video-button-response,12,365131,0.0-12.0,fgbfsygn3,13568,"[""video/maybe_line_new_4_1cut.mp4""]",0,maybe_1,video/maybe_line_new_4_1cut.mp4,2022-01-25 02:06:48,69.113.168.239,"Mozilla/5.0 (Windows NT 10.0; Win64; x64) AppleWebKit/537.36 (KHTML, like Gecko) Chrome/97.0.4692.99 Safari/537.36",WebKit,Chrome,97.0.4692.99,Windows,10.0,7b8458fb558ed8aeae2461372fcc99b6
13,1,"""","""","""","""","""",video-button-response,13,382452,0.0-13.0,fgbfsygn3,17319,"[""video/yes_line_8_1cut.mp4""]",1,yes_1,video/yes_line_8_1cut.mp4,2022-01-25 02:06:48,69.113.168.239,"Mozilla/5.0 (Windows NT 10.0; Win64; x64) AppleWebKit/537.36 (KHTML, like Gecko) Chrome/97.0.4692.99 Safari/537.36",WebKit,Chrome,97.0.4692.99,Windows,10.0,7b8458fb558ed8aeae2461372fcc99b6
13,1,"""","""","""","""","""",video-button-response,14,390201,0.0-14.0,fgbfsygn3,7748,"[""video/maybe_line_new_3_1cut.mp4""]",0,maybe_1,video/maybe_line_new_3_1cut.mp4,2022-01-25 02:06:48,69.113.168.239,"Mozilla/5.0 (Windows NT 10.0; Win64; x64) AppleWebKit/537.36 (KHTML, like Gecko) Chrome/97.0.4692.99 Safari/537.36",WebKit,Chrome,97.0.4692.99,Windows,10.0,7b8458fb558ed8aeae2461372fcc99b6
13,1,"""","""","""","""","""",video-button-response,15,399779,0.0-15.0,fgbfsygn3,9576,"[""video/no_line_3_1cut.mp4""]",0,no_1,video/no_line_3_1cut.mp4,2022-01-25 02:06:48,69.113.168.239,"Mozilla/5.0 (Windows NT 10.0; Win64; x64) AppleWebKit/537.36 (KHTML, like Gecko) Chrome/97.0.4692.99 Safari/537.36",WebKit,Chrome,97.0.4692.99,Windows,10.0,7b8458fb558ed8aeae2461372fcc99b6
13,1,"""","""","""","""","""",video-button-response,16,417296,0.0-16.0,fgbfsygn3,17515,"[""video/maybe_line_new_1_1cut.mp4""]",0,maybe_1,video/maybe_line_new_1_1cut.mp4,2022-01-25 02:06:48,69.113.168.239,"Mozilla/5.0 (Windows NT 10.0; Win64; x64) AppleWebKit/537.36 (KHTML, like Gecko) Chrome/97.0.4692.99 Safari/537.36",WebKit,Chrome,97.0.4692.99,Windows,10.0,7b8458fb558ed8aeae2461372fcc99b6
13,1,"""","""","""","""","""",video-button-response,17,425555,0.0-17.0,fgbfsygn3,8256,"[""video/no_line_1_1cut.mp4""]",0,no_1,video/no_line_1_1cut.mp4,2022-01-25 02:06:48,69.113.168.239,"Mozilla/5.0 (Windows NT 10.0; Win64; x64) AppleWebKit/537.36 (KHTML, like Gecko) Chrome/97.0.4692.99 Safari/537.36",WebKit,Chrome,97.0.4692.99,Windows,10.0,7b8458fb558ed8aeae2461372fcc99b6
13,1,"""","""","""","""","""",video-button-response,18,432345,0.0-18.0,fgbfsygn3,6789,"[""video/yes_line_10_1cut.mp4""]",0,yes_1,video/yes_line_10_1cut.mp4,2022-01-25 02:06:48,69.113.168.239,"Mozilla/5.0 (Windows NT 10.0; Win64; x64) AppleWebKit/537.36 (KHTML, like Gecko) Chrome/97.0.4692.99 Safari/537.36",WebKit,Chrome,97.0.4692.99,Windows,10.0,7b8458fb558ed8aeae2461372fcc99b6
13,1,"""","""","""","""","""",survey-html-form,19,512473,0.0-19.0,fgbfsygn3,80127,"""","[{""name"":""understand"",""value"":""yes""},{""name"":""problems"",""value"":""I don't think so""},{""name"":""age"",""value"":""40""},{""name"":""gender"",""value"":""male""},{""name"":""comments"",""value"":""Pretty much all were morally unacceptable, as every time the person of interest leaves the line. The one time, I found it acceptable, was when by leaving the line, the person didn't really benefited from it...""}]",debrief,"""",2022-01-25 02:06:48,69.113.168.239,"Mozilla/5.0 (Windows NT 10.0; Win64; x64) AppleWebKit/537.36 (KHTML, like Gecko) Chrome/97.0.4692.99 Safari/537.36",WebKit,Chrome,97.0.4692.99,Windows,10.0,7b8458fb558ed8aeae2461372fcc99b6
13,1,"""","""","""","""","""",html-keyboard-response,20,533198,0.0-20.0,fgbfsygn3,20724,"<div style=""font-size:20px;"">This task is now over. The completion code is: fgbfsygn3 Press space after you have the completion code to finish. Thank you for your participation! </div>", ,"""","""",2022-01-25 02:06:48,69.113.168.239,"Mozilla/5.0 (Windows NT 10.0; Win64; x64) AppleWebKit/537.36 (KHTML, like Gecko) Chrome/97.0.4692.99 Safari/537.36",WebKit,Chrome,97.0.4692.99,Windows,10.0,7b8458fb558ed8aeae2461372fcc99b6
19,1,true,false,[],[],[],preload,0,2061,0.0-0.0,lxhzbrxrw,"""","""","""","""","""",2022-01-25 02:12:37,71.214.8.184,"Mozilla/5.0 (Windows NT 10.0; Win64; x64) AppleWebKit/537.36 (KHTML, like Gecko) Chrome/97.0.4692.99 Safari/537.36 Edg/97.0.1072.69",WebKit,Edge,97.0.1072.69,Windows,10.0,7b8458fb558ed8aeae2461372fcc99b6
19,1,"""","""","""","""","""",html-keyboard-response,1,10761,0.0-1.0,lxhzbrxrw,8698,"<p style=""text-align:center;width:700px;""> Welcome to the experiment! This study takes most people around 15 minutes to complete. Please complete it in one sitting.</p>", ,"""","""",2022-01-25 02:12:37,71.214.8.184,"Mozilla/5.0 (Windows NT 10.0; Win64; x64) AppleWebKit/537.36 (KHTML, like Gecko) Chrome/97.0.4692.99 Safari/537.36 Edg/97.0.1072.69",WebKit,Edge,97.0.1072.69,Windows,10.0,7b8458fb558ed8aeae2461372fcc99b6
19,1,"""","""","""","""","""",html-keyboard-response,2,107059,0.0-2.0,lxhzbrxrw,96296,"<p style = ""font-size:16px;"">MIT Computational Cognitive Science Lab</p><h4>Press the 'y' key to consent.</h4><div style = ""background-color:#f2f2f2;""><h3>Informed Consent Form</h3><div style=""text-align:left;width:700px;""><p style = ""font-size:16px;"">In this HIT, you will be asked to read a set of instructions that describe a particular scenario, and you will then be asked to perform a simple task relating to that scenario. There will also be comprehension and attention checks. Participants who do not answer these checks correctly cannot be approved. In order to get credit for this HIT, you must read all the questions fully and answer honestly. You may only complete this HIT once. If you complete this HIT multiple times, you will be rejected.</p><p style = ""font-size:16px;"">This HIT is part of a MIT scientific research project. Your decision to complete this HIT is voluntary. There is no way for us to identify you. The only information we will have, in addition to your responses, is the time at which you completed the survey. The results of the research may be presented at scientific meetings or published in scientific journals. Pressing the ""Y"" key indicates that you are at least 18 years of age, and agree to complete this HIT voluntarily. Press the ""Y"" key to confirm your agreement and continue.</p></div>",y,"""","""",2022-01-25 02:12:37,71.214.8.184,"Mozilla/5.0 (Windows NT 10.0; Win64; x64) AppleWebKit/537.36 (KHTML, like Gecko) Chrome/97.0.4692.99 Safari/537.36 Edg/97.0.1072.69",WebKit,Edge,97.0.1072.69,Windows,10.0,7b8458fb558ed8aeae2461372fcc99b6
19,1,"""","""","""","""","""",survey-text,3,160168,0.0-3.0,lxhzbrxrw,53103,"""","{""instructions1"":""Each person needs to collect one bucket of water for each level.""}",instructions,"""",2022-01-25 02:12:37,71.214.8.184,"Mozilla/5.0 (Windows NT 10.0; Win64; x64) AppleWebKit/537.36 (KHTML, like Gecko) Chrome/97.0.4692.99 Safari/537.36 Edg/97.0.1072.69",WebKit,Edge,97.0.1072.69,Windows,10.0,7b8458fb558ed8aeae2461372fcc99b6
19,1,"""","""","""","""","""",survey-text,4,264344,0.0-4.0,lxhzbrxrw,104170,"""","{""instructions2"":""one""}",instructions,"""",2022-01-25 02:12:37,71.214.8.184,"Mozilla/5.0 (Windows NT 10.0; Win64; x64) AppleWebKit/537.36 (KHTML, like Gecko) Chrome/97.0.4692.99 Safari/537.36 Edg/97.0.1072.69",WebKit,Edge,97.0.1072.69,Windows,10.0,7b8458fb558ed8aeae2461372fcc99b6
19,1,"""","""","""","""","""",survey-text,5,463247,0.0-5.0,lxhzbrxrw,198900,"""","{""instructions4"":""think carefully""}",instructions,"""",2022-01-25 02:12:37,71.214.8.184,"Mozilla/5.0 (Windows NT 10.0; Win64; x64) AppleWebKit/537.36 (KHTML, like Gecko) Chrome/97.0.4692.99 Safari/537.36 Edg/97.0.1072.69",WebKit,Edge,97.0.1072.69,Windows,10.0,7b8458fb558ed8aeae2461372fcc99b6
19,1,"""","""","""","""","""",video-button-response,6,507946,0.0-6.0,lxhzbrxrw,44695,"[""video/yes_line_9_1cut.mp4""]",1,yes_1,video/yes_line_9_1cut.mp4,2022-01-25 02:12:37,71.214.8.184,"Mozilla/5.0 (Windows NT 10.0; Win64; x64) AppleWebKit/537.36 (KHTML, like Gecko) Chrome/97.0.4692.99 Safari/537.36 Edg/97.0.1072.69",WebKit,Edge,97.0.1072.69,Windows,10.0,7b8458fb558ed8aeae2461372fcc99b6
19,1,"""","""","""","""","""",video-button-response,7,543795,0.0-7.0,lxhzbrxrw,35847,"[""video/no_line_1_1cut.mp4""]",0,no_1,video/no_line_1_1cut.mp4,2022-01-25 02:12:37,71.214.8.184,"Mozilla/5.0 (Windows NT 10.0; Win64; x64) AppleWebKit/537.36 (KHTML, like Gecko) Chrome/97.0.4692.99 Safari/537.36 Edg/97.0.1072.69",WebKit,Edge,97.0.1072.69,Windows,10.0,7b8458fb558ed8aeae2461372fcc99b6
19,1,"""","""","""","""","""",video-button-response,8,554252,0.0-8.0,lxhzbrxrw,10454,"[""video/maybe_line_new_5_1cut.mp4""]",0,maybe_1,video/maybe_line_new_5_1cut.mp4,2022-01-25 02:12:37,71.214.8.184,"Mozilla/5.0 (Windows NT 10.0; Win64; x64) AppleWebKit/537.36 (KHTML, like Gecko) Chrome/97.0.4692.99 Safari/537.36 Edg/97.0.1072.69",WebKit,Edge,97.0.1072.69,Windows,10.0,7b8458fb558ed8aeae2461372fcc99b6
19,1,"""","""","""","""","""",video-button-response,9,567597,0.0-9.0,lxhzbrxrw,13342,"[""video/maybe_line_new_3_1cut.mp4""]",1,maybe_1,video/maybe_line_new_3_1cut.mp4,2022-01-25 02:12:37,71.214.8.184,"Mozilla/5.0 (Windows NT 10.0; Win64; x64) AppleWebKit/537.36 (KHTML, like Gecko) Chrome/97.0.4692.99 Safari/537.36 Edg/97.0.1072.69",WebKit,Edge,97.0.1072.69,Windows,10.0,7b8458fb558ed8aeae2461372fcc99b6
19,1,"""","""","""","""","""",video-button-response,10,582603,0.0-10.0,lxhzbrxrw,15003,"[""video/no_line_2_1cut.mp4""]",1,no_1,video/no_line_2_1cut.mp4,2022-01-25 02:12:37,71.214.8.184,"Mozilla/5.0 (Windows NT 10.0; Win64; x64) AppleWebKit/537.36 (KHTML, like Gecko) Chrome/97.0.4692.99 Safari/537.36 Edg/97.0.1072.69",WebKit,Edge,97.0.1072.69,Windows,10.0,7b8458fb558ed8aeae2461372fcc99b6
19,1,"""","""","""","""","""",video-button-response,11,596207,0.0-11.0,lxhzbrxrw,13602,"[""video/maybe_line_new_4_1cut.mp4""]",1,maybe_1,video/maybe_line_new_4_1cut.mp4,2022-01-25 02:12:37,71.214.8.184,"Mozilla/5.0 (Windows NT 10.0; Win64; x64) AppleWebKit/537.36 (KHTML, like Gecko) Chrome/97.0.4692.99 Safari/537.36 Edg/97.0.1072.69",WebKit,Edge,97.0.1072.69,Windows,10.0,7b8458fb558ed8aeae2461372fcc99b6
19,1,"""","""","""","""","""",video-button-response,12,612714,0.0-12.0,lxhzbrxrw,16504,"[""video/yes_line_10_1cut.mp4""]",0,yes_1,video/yes_line_10_1cut.mp4,2022-01-25 02:12:37,71.214.8.184,"Mozilla/5.0 (Windows NT 10.0; Win64; x64) AppleWebKit/537.36 (KHTML, like Gecko) Chrome/97.0.4692.99 Safari/537.36 Edg/97.0.1072.69",WebKit,Edge,97.0.1072.69,Windows,10.0,7b8458fb558ed8aeae2461372fcc99b6
19,1,"""","""","""","""","""",video-button-response,13,623326,0.0-13.0,lxhzbrxrw,10609,"[""video/no_line_3_1cut.mp4""]",1,no_1,video/no_line_3_1cut.mp4,2022-01-25 02:12:37,71.214.8.184,"Mozilla/5.0 (Windows NT 10.0; Win64; x64) AppleWebKit/537.36 (KHTML, like Gecko) Chrome/97.0.4692.99 Safari/537.36 Edg/97.0.1072.69",WebKit,Edge,97.0.1072.69,Windows,10.0,7b8458fb558ed8aeae2461372fcc99b6
19,1,"""","""","""","""","""",video-button-response,14,634550,0.0-14.0,lxhzbrxrw,11223,"[""video/yes_line_7_1cut.mp4""]",1,yes_1,video/yes_line_7_1cut.mp4,2022-01-25 02:12:37,71.214.8.184,"Mozilla/5.0 (Windows NT 10.0; Win64; x64) AppleWebKit/537.36 (KHTML, like Gecko) Chrome/97.0.4692.99 Safari/537.36 Edg/97.0.1072.69",WebKit,Edge,97.0.1072.69,Windows,10.0,7b8458fb558ed8aeae2461372fcc99b6
19,1,"""","""","""","""","""",video-button-response,15,664111,0.0-15.0,lxhzbrxrw,29558,"[""video/maybe_line_new_1_1cut.mp4""]",0,maybe_1,video/maybe_line_new_1_1cut.mp4,2022-01-25 02:12:37,71.214.8.184,"Mozilla/5.0 (Windows NT 10.0; Win64; x64) AppleWebKit/537.36 (KHTML, like Gecko) Chrome/97.0.4692.99 Safari/537.36 Edg/97.0.1072.69",WebKit,Edge,97.0.1072.69,Windows,10.0,7b8458fb558ed8aeae2461372fcc99b6
19,1,"""","""","""","""","""",video-button-response,16,671976,0.0-16.0,lxhzbrxrw,7864,"[""video/maybe_line_new_2_1cut.mp4""]",0,maybe_1,video/maybe_line_new_2_1cut.mp4,2022-01-25 02:12:37,71.214.8.184,"Mozilla/5.0 (Windows NT 10.0; Win64; x64) AppleWebKit/537.36 (KHTML, like Gecko) Chrome/97.0.4692.99 Safari/537.36 Edg/97.0.1072.69",WebKit,Edge,97.0.1072.69,Windows,10.0,7b8458fb558ed8aeae2461372fcc99b6
19,1,"""","""","""","""","""",video-button-response,17,694510,0.0-17.0,lxhzbrxrw,22532,"[""video/yes_line_8_1cut.mp4""]",0,yes_1,video/yes_line_8_1cut.mp4,2022-01-25 02:12:37,71.214.8.184,"Mozilla/5.0 (Windows NT 10.0; Win64; x64) AppleWebKit/537.36 (KHTML, like Gecko) Chrome/97.0.4692.99 Safari/537.36 Edg/97.0.1072.69",WebKit,Edge,97.0.1072.69,Windows,10.0,7b8458fb558ed8aeae2461372fcc99b6
19,1,"""","""","""","""","""",video-button-response,18,702269,0.0-18.0,lxhzbrxrw,7757,"[""video/maybe_line_new_6_1cut.mp4""]",1,maybe_1,video/maybe_line_new_6_1cut.mp4,2022-01-25 02:12:37,71.214.8.184,"Mozilla/5.0 (Windows NT 10.0; Win64; x64) AppleWebKit/537.36 (KHTML, like Gecko) Chrome/97.0.4692.99 Safari/537.36 Edg/97.0.1072.69",WebKit,Edge,97.0.1072.69,Windows,10.0,7b8458fb558ed8aeae2461372fcc99b6
19,1,"""","""","""","""","""",survey-html-form,19,723294,0.0-19.0,lxhzbrxrw,21023,"""","[{""name"":""understand"",""value"":""yes""},{""name"":""problems"",""value"":""no""},{""name"":""age"",""value"":""44""},{""name"":""gender"",""value"":""male""},{""name"":""comments"",""value"":""}]",debrief,"""",2022-01-25 02:12:37,71.214.8.184,"Mozilla/5.0 (Windows NT 10.0; Win64; x64) AppleWebKit/537.36 (KHTML, like Gecko) Chrome/97.0.4692.99 Safari/537.36 Edg/97.0.1072.69",WebKit,Edge,97.0.1072.69,Windows,10.0,7b8458fb558ed8aeae2461372fcc99b6
19,1,"""","""","""","""","""",html-keyboard-response,20,746612,0.0-20.0,lxhzbrxrw,23317,"<div style=""font-size:20px;"">This task is now over. The completion code is: lxhzbrxrw Press space after you have the completion code to finish. Thank you for your participation! </div>", ,"""","""",2022-01-25 02:12:37,71.214.8.184,"Mozilla/5.0 (Windows NT 10.0; Win64; x64) AppleWebKit/537.36 (KHTML, like Gecko) Chrome/97.0.4692.99 Safari/537.36 Edg/97.0.1072.69",WebKit,Edge,97.0.1072.69,Windows,10.0,7b8458fb558ed8aeae2461372fcc99b6
21,1,true,false,[],[],[],preload,0,722,0.0-0.0,ps65wmkwn,"""","""","""","""","""",2022-01-25 02:13:50,24.112.118.192,"Mozilla/5.0 (Macintosh; Intel Mac OS X 10_15_7) AppleWebKit/537.36 (KHTML, like Gecko) Chrome/97.0.4692.99 Safari/537.36",Macintosh,Chrome,97.0.4692.99,OS X,10_15_7,7b8458fb558ed8aeae2461372fcc99b6
21,1,"""","""","""","""","""",html-keyboard-response,1,12991,0.0-1.0,ps65wmkwn,12266,"<p style=""text-align:center;width:700px;""> Welcome to the experiment! This study takes most people around 15 minutes to complete. Please complete it in one sitting.</p>", ,"""","""",2022-01-25 02:13:50,24.112.118.192,"Mozilla/5.0 (Macintosh; Intel Mac OS X 10_15_7) AppleWebKit/537.36 (KHTML, like Gecko) Chrome/97.0.4692.99 Safari/537.36",Macintosh,Chrome,97.0.4692.99,OS X,10_15_7,7b8458fb558ed8aeae2461372fcc99b6
21,1,"""","""","""","""","""",html-keyboard-response,2,15931,0.0-2.0,ps65wmkwn,2937,"<p style = ""font-size:16px;"">MIT Computational Cognitive Science Lab</p><h4>Press the 'y' key to consent.</h4><div style = ""background-color:#f2f2f2;""><h3>Informed Consent Form</h3><div style=""text-align:left;width:700px;""><p style = ""font-size:16px;"">In this HIT, you will be asked to read a set of instructions that describe a particular scenario, and you will then be asked to perform a simple task relating to that scenario. There will also be comprehension and attention checks. Participants who do not answer these checks correctly cannot be approved. In order to get credit for this HIT, you must read all the questions fully and answer honestly. You may only complete this HIT once. If you complete this HIT multiple times, you will be rejected.</p><p style = ""font-size:16px;"">This HIT is part of a MIT scientific research project. Your decision to complete this HIT is voluntary. There is no way for us to identify you. The only information we will have, in addition to your responses, is the time at which you completed the survey. The results of the research may be presented at scientific meetings or published in scientific journals. Pressing the ""Y"" key indicates that you are at least 18 years of age, and agree to complete this HIT voluntarily. Press the ""Y"" key to confirm your agreement and continue.</p></div>",y,"""","""",2022-01-25 02:13:50,24.112.118.192,"Mozilla/5.0 (Macintosh; Intel Mac OS X 10_15_7) AppleWebKit/537.36 (KHTML, like Gecko) Chrome/97.0.4692.99 Safari/537.36",Macintosh,Chrome,97.0.4692.99,OS X,10_15_7,7b8458fb558ed8aeae2461372fcc99b6
21,1,"""","""","""","""","""",survey-text,3,85104,0.0-3.0,ps65wmkwn,69161,"""","{""instructions1"":""Each person needs to collect water and bring it back to the wooden storage buckets.""}",instructions,"""",2022-01-25 02:13:50,24.112.118.192,"Mozilla/5.0 (Macintosh; Intel Mac OS X 10_15_7) AppleWebKit/537.36 (KHTML, like Gecko) Chrome/97.0.4692.99 Safari/537.36",Macintosh,Chrome,97.0.4692.99,OS X,10_15_7,7b8458fb558ed8aeae2461372fcc99b6
21,1,"""","""","""","""","""",survey-text,4,128268,0.0-4.0,ps65wmkwn,43151,"""","{""instructions2"":""one""}",instructions,"""",2022-01-25 02:13:50,24.112.118.192,"Mozilla/5.0 (Macintosh; Intel Mac OS X 10_15_7) AppleWebKit/537.36 (KHTML, like Gecko) Chrome/97.0.4692.99 Safari/537.36",Macintosh,Chrome,97.0.4692.99,OS X,10_15_7,7b8458fb558ed8aeae2461372fcc99b6
21,1,"""","""","""","""","""",survey-text,5,180629,0.0-5.0,ps65wmkwn,52356,"""","{""instructions4"":""Think about what will happen next.""}",instructions,"""",2022-01-25 02:13:50,24.112.118.192,"Mozilla/5.0 (Macintosh; Intel Mac OS X 10_15_7) AppleWebKit/537.36 (KHTML, like Gecko) Chrome/97.0.4692.99 Safari/537.36",Macintosh,Chrome,97.0.4692.99,OS X,10_15_7,7b8458fb558ed8aeae2461372fcc99b6
21,1,"""","""","""","""","""",video-button-response,6,226836,0.0-6.0,ps65wmkwn,46204,"[""video/yes_line_7_1cut.mp4""]",0,yes_1,video/yes_line_7_1cut.mp4,2022-01-25 02:13:50,24.112.118.192,"Mozilla/5.0 (Macintosh; Intel Mac OS X 10_15_7) AppleWebKit/537.36 (KHTML, like Gecko) Chrome/97.0.4692.99 Safari/537.36",Macintosh,Chrome,97.0.4692.99,OS X,10_15_7,7b8458fb558ed8aeae2461372fcc99b6
21,1,"""","""","""","""","""",video-button-response,7,240323,0.0-7.0,ps65wmkwn,13482,"[""video/no_line_1_1cut.mp4""]",0,no_1,video/no_line_1_1cut.mp4,2022-01-25 02:13:50,24.112.118.192,"Mozilla/5.0 (Macintosh; Intel Mac OS X 10_15_7) AppleWebKit/537.36 (KHTML, like Gecko) Chrome/97.0.4692.99 Safari/537.36",Macintosh,Chrome,97.0.4692.99,OS X,10_15_7,7b8458fb558ed8aeae2461372fcc99b6
21,1,"""","""","""","""","""",video-button-response,8,276233,0.0-8.0,ps65wmkwn,35906,"[""video/maybe_line_new_4_1cut.mp4""]",0,maybe_1,video/maybe_line_new_4_1cut.mp4,2022-01-25 02:13:50,24.112.118.192,"Mozilla/5.0 (Macintosh; Intel Mac OS X 10_15_7) AppleWebKit/537.36 (KHTML, like Gecko) Chrome/97.0.4692.99 Safari/537.36",Macintosh,Chrome,97.0.4692.99,OS X,10_15_7,7b8458fb558ed8aeae2461372fcc99b6
21,1,"""","""","""","""","""",video-button-response,9,283384,0.0-9.0,ps65wmkwn,7145,"[""video/maybe_line_new_6_1cut.mp4""]",0,maybe_1,video/maybe_line_new_6_1cut.mp4,2022-01-25 02:13:50,24.112.118.192,"Mozilla/5.0 (Macintosh; Intel Mac OS X 10_15_7) AppleWebKit/537.36 (KHTML, like Gecko) Chrome/97.0.4692.99 Safari/537.36",Macintosh,Chrome,97.0.4692.99,OS X,10_15_7,7b8458fb558ed8aeae2461372fcc99b6
21,1,"""","""","""","""","""",video-button-response,10,295125,0.0-10.0,ps65wmkwn,11735,"[""video/no_line_3_1cut.mp4""]",1,no_1,video/no_line_3_1cut.mp4,2022-01-25 02:13:50,24.112.118.192,"Mozilla/5.0 (Macintosh; Intel Mac OS X 10_15_7) AppleWebKit/537.36 (KHTML, like Gecko) Chrome/97.0.4692.99 Safari/537.36",Macintosh,Chrome,97.0.4692.99,OS X,10_15_7,7b8458fb558ed8aeae2461372fcc99b6
21,1,"""","""","""","""","""",video-button-response,11,311110,0.0-11.0,ps65wmkwn,15980,"[""video/yes_line_9_1cut.mp4""]",0,yes_1,video/yes_line_9_1cut.mp4,2022-01-25 02:13:50,24.112.118.192,"Mozilla/5.0 (Macintosh; Intel Mac OS X 10_15_7) AppleWebKit/537.36 (KHTML, like Gecko) Chrome/97.0.4692.99 Safari/537.36",Macintosh,Chrome,97.0.4692.99,OS X,10_15_7,7b8458fb558ed8aeae2461372fcc99b6
21,1,"""","""","""","""","""",video-button-response,12,322251,0.0-12.0,ps65wmkwn,11137,"[""video/yes_line_10_1cut.mp4""]",0,yes_1,video/yes_line_10_1cut.mp4,2022-01-25 02:13:50,24.112.118.192,"Mozilla/5.0 (Macintosh; Intel Mac OS X 10_15_7) AppleWebKit/537.36 (KHTML, like Gecko) Chrome/97.0.4692.99 Safari/537.36",Macintosh,Chrome,97.0.4692.99,OS X,10_15_7,7b8458fb558ed8aeae2461372fcc99b6
21,1,"""","""","""","""","""",video-button-response,13,334577,0.0-13.0,ps65wmkwn,12320,"[""video/maybe_line_new_2_1cut.mp4""]",0,maybe_1,video/maybe_line_new_2_1cut.mp4,2022-01-25 02:13:50,24.112.118.192,"Mozilla/5.0 (Macintosh; Intel Mac OS X 10_15_7) AppleWebKit/537.36 (KHTML, like Gecko) Chrome/97.0.4692.99 Safari/537.36",Macintosh,Chrome,97.0.4692.99,OS X,10_15_7,7b8458fb558ed8aeae2461372fcc99b6
21,1,"""","""","""","""","""",video-button-response,14,344004,0.0-14.0,ps65wmkwn,9423,"[""video/maybe_line_new_3_1cut.mp4""]",0,maybe_1,video/maybe_line_new_3_1cut.mp4,2022-01-25 02:13:50,24.112.118.192,"Mozilla/5.0 (Macintosh; Intel Mac OS X 10_15_7) AppleWebKit/537.36 (KHTML, like Gecko) Chrome/97.0.4692.99 Safari/537.36",Macintosh,Chrome,97.0.4692.99,OS X,10_15_7,7b8458fb558ed8aeae2461372fcc99b6
21,1,"""","""","""","""","""",video-button-response,15,354687,0.0-15.0,ps65wmkwn,10678,"[""video/maybe_line_new_5_1cut.mp4""]",0,maybe_1,video/maybe_line_new_5_1cut.mp4,2022-01-25 02:13:50,24.112.118.192,"Mozilla/5.0 (Macintosh; Intel Mac OS X 10_15_7) AppleWebKit/537.36 (KHTML, like Gecko) Chrome/97.0.4692.99 Safari/537.36",Macintosh,Chrome,97.0.4692.99,OS X,10_15_7,7b8458fb558ed8aeae2461372fcc99b6
21,1,"""","""","""","""","""",video-button-response,16,369026,0.0-16.0,ps65wmkwn,14334,"[""video/yes_line_8_1cut.mp4""]",0,yes_1,video/yes_line_8_1cut.mp4,2022-01-25 02:13:50,24.112.118.192,"Mozilla/5.0 (Macintosh; Intel Mac OS X 10_15_7) AppleWebKit/537.36 (KHTML, like Gecko) Chrome/97.0.4692.99 Safari/537.36",Macintosh,Chrome,97.0.4692.99,OS X,10_15_7,7b8458fb558ed8aeae2461372fcc99b6
21,1,"""","""","""","""","""",video-button-response,17,380484,0.0-17.0,ps65wmkwn,11452,"[""video/no_line_2_1cut.mp4""]",1,no_1,video/no_line_2_1cut.mp4,2022-01-25 02:13:50,24.112.118.192,"Mozilla/5.0 (Macintosh; Intel Mac OS X 10_15_7) AppleWebKit/537.36 (KHTML, like Gecko) Chrome/97.0.4692.99 Safari/537.36",Macintosh,Chrome,97.0.4692.99,OS X,10_15_7,7b8458fb558ed8aeae2461372fcc99b6
21,1,"""","""","""","""","""",video-button-response,18,397638,0.0-18.0,ps65wmkwn,17149,"[""video/maybe_line_new_1_1cut.mp4""]",1,maybe_1,video/maybe_line_new_1_1cut.mp4,2022-01-25 02:13:50,24.112.118.192,"Mozilla/5.0 (Macintosh; Intel Mac OS X 10_15_7) AppleWebKit/537.36 (KHTML, like Gecko) Chrome/97.0.4692.99 Safari/537.36",Macintosh,Chrome,97.0.4692.99,OS X,10_15_7,7b8458fb558ed8aeae2461372fcc99b6
21,1,"""","""","""","""","""",survey-html-form,19,442845,0.0-19.0,ps65wmkwn,45205,"""","[{""name"":""understand"",""value"":""yes""},{""name"":""problems"",""value"":""no""},{""name"":""age"",""value"":""39""},{""name"":""gender"",""value"":""female""},{""name"":""comments"",""value"":""It was understandable but I still questioned if I was choosing the correct response.""}]",debrief,"""",2022-01-25 02:13:50,24.112.118.192,"Mozilla/5.0 (Macintosh; Intel Mac OS X 10_15_7) AppleWebKit/537.36 (KHTML, like Gecko) Chrome/97.0.4692.99 Safari/537.36",Macintosh,Chrome,97.0.4692.99,OS X,10_15_7,7b8458fb558ed8aeae2461372fcc99b6
21,1,"""","""","""","""","""",html-keyboard-response,20,453280,0.0-20.0,ps65wmkwn,10432,"<div style=""font-size:20px;"">This task is now over. The completion code is: ps65wmkwn Press space after you have the completion code to finish. Thank you for your participation! </div>", ,"""","""",2022-01-25 02:13:50,24.112.118.192,"Mozilla/5.0 (Macintosh; Intel Mac OS X 10_15_7) AppleWebKit/537.36 (KHTML, like Gecko) Chrome/97.0.4692.99 Safari/537.36",Macintosh,Chrome,97.0.4692.99,OS X,10_15_7,7b8458fb558ed8aeae2461372fcc99b6
22,1,true,false,[],[],[],preload,0,500,0.0-0.0,0rf8fpms2,"""","""","""","""","""",2022-01-25 02:14:10,100.15.29.197,"Mozilla/5.0 (Windows NT 10.0; Win64; x64) AppleWebKit/537.36 (KHTML, like Gecko) Chrome/97.0.4692.99 Safari/537.36",WebKit,Chrome,97.0.4692.99,Windows,10.0,7b8458fb558ed8aeae2461372fcc99b6
22,1,"""","""","""","""","""",html-keyboard-response,1,3992,0.0-1.0,0rf8fpms2,3488,"<p style=""text-align:center;width:700px;""> Welcome to the experiment! This study takes most people around 15 minutes to complete. Please complete it in one sitting.</p>", ,"""","""",2022-01-25 02:14:10,100.15.29.197,"Mozilla/5.0 (Windows NT 10.0; Win64; x64) AppleWebKit/537.36 (KHTML, like Gecko) Chrome/97.0.4692.99 Safari/537.36",WebKit,Chrome,97.0.4692.99,Windows,10.0,7b8458fb558ed8aeae2461372fcc99b6
22,1,"""","""","""","""","""",html-keyboard-response,2,7966,0.0-2.0,0rf8fpms2,3973,"<p style = ""font-size:16px;"">MIT Computational Cognitive Science Lab</p><h4>Press the 'y' key to consent.</h4><div style = ""background-color:#f2f2f2;""><h3>Informed Consent Form</h3><div style=""text-align:left;width:700px;""><p style = ""font-size:16px;"">In this HIT, you will be asked to read a set of instructions that describe a particular scenario, and you will then be asked to perform a simple task relating to that scenario. There will also be comprehension and attention checks. Participants who do not answer these checks correctly cannot be approved. In order to get credit for this HIT, you must read all the questions fully and answer honestly. You may only complete this HIT once. If you complete this HIT multiple times, you will be rejected.</p><p style = ""font-size:16px;"">This HIT is part of a MIT scientific research project. Your decision to complete this HIT is voluntary. There is no way for us to identify you. The only information we will have, in addition to your responses, is the time at which you completed the survey. The results of the research may be presented at scientific meetings or published in scientific journals. Pressing the ""Y"" key indicates that you are at least 18 years of age, and agree to complete this HIT voluntarily. Press the ""Y"" key to confirm your agreement and continue.</p></div>",y,"""","""",2022-01-25 02:14:10,100.15.29.197,"Mozilla/5.0 (Windows NT 10.0; Win64; x64) AppleWebKit/537.36 (KHTML, like Gecko) Chrome/97.0.4692.99 Safari/537.36",WebKit,Chrome,97.0.4692.99,Windows,10.0,7b8458fb558ed8aeae2461372fcc99b6
22,1,"""","""","""","""","""",survey-text,3,48533,0.0-3.0,0rf8fpms2,40554,"""","{""instructions1"":""collect water from a water source and bring it back to the wooden storage buckets""}",instructions,"""",2022-01-25 02:14:10,100.15.29.197,"Mozilla/5.0 (Windows NT 10.0; Win64; x64) AppleWebKit/537.36 (KHTML, like Gecko) Chrome/97.0.4692.99 Safari/537.36",WebKit,Chrome,97.0.4692.99,Windows,10.0,7b8458fb558ed8aeae2461372fcc99b6
22,1,"""","""","""","""","""",survey-text,4,97063,0.0-4.0,0rf8fpms2,48518,"""","{""instructions2"":""1""}",instructions,"""",2022-01-25 02:14:10,100.15.29.197,"Mozilla/5.0 (Windows NT 10.0; Win64; x64) AppleWebKit/537.36 (KHTML, like Gecko) Chrome/97.0.4692.99 Safari/537.36",WebKit,Chrome,97.0.4692.99,Windows,10.0,7b8458fb558ed8aeae2461372fcc99b6
22,1,"""","""","""","""","""",survey-text,5,237342,0.0-5.0,0rf8fpms2,140273,"""","{""instructions4"":"" think about what will happen next""}",instructions,"""",2022-01-25 02:14:10,100.15.29.197,"Mozilla/5.0 (Windows NT 10.0; Win64; x64) AppleWebKit/537.36 (KHTML, like Gecko) Chrome/97.0.4692.99 Safari/537.36",WebKit,Chrome,97.0.4692.99,Windows,10.0,7b8458fb558ed8aeae2461372fcc99b6
22,1,"""","""","""","""","""",video-button-response,6,268107,0.0-6.0,0rf8fpms2,30759,"[""video/maybe_line_new_5_1cut.mp4""]",0,maybe_1,video/maybe_line_new_5_1cut.mp4,2022-01-25 02:14:10,100.15.29.197,"Mozilla/5.0 (Windows NT 10.0; Win64; x64) AppleWebKit/537.36 (KHTML, like Gecko) Chrome/97.0.4692.99 Safari/537.36",WebKit,Chrome,97.0.4692.99,Windows,10.0,7b8458fb558ed8aeae2461372fcc99b6
22,1,"""","""","""","""","""",video-button-response,7,294672,0.0-7.0,0rf8fpms2,26559,"[""video/no_line_3_1cut.mp4""]",1,no_1,video/no_line_3_1cut.mp4,2022-01-25 02:14:10,100.15.29.197,"Mozilla/5.0 (Windows NT 10.0; Win64; x64) AppleWebKit/537.36 (KHTML, like Gecko) Chrome/97.0.4692.99 Safari/537.36",WebKit,Chrome,97.0.4692.99,Windows,10.0,7b8458fb558ed8aeae2461372fcc99b6
22,1,"""","""","""","""","""",video-button-response,8,302520,0.0-8.0,0rf8fpms2,7844,"[""video/yes_line_10_1cut.mp4""]",0,yes_1,video/yes_line_10_1cut.mp4,2022-01-25 02:14:10,100.15.29.197,"Mozilla/5.0 (Windows NT 10.0; Win64; x64) AppleWebKit/537.36 (KHTML, like Gecko) Chrome/97.0.4692.99 Safari/537.36",WebKit,Chrome,97.0.4692.99,Windows,10.0,7b8458fb558ed8aeae2461372fcc99b6
22,1,"""","""","""","""","""",video-button-response,9,307653,0.0-9.0,0rf8fpms2,5128,"[""video/no_line_1_1cut.mp4""]",1,no_1,video/no_line_1_1cut.mp4,2022-01-25 02:14:10,100.15.29.197,"Mozilla/5.0 (Windows NT 10.0; Win64; x64) AppleWebKit/537.36 (KHTML, like Gecko) Chrome/97.0.4692.99 Safari/537.36",WebKit,Chrome,97.0.4692.99,Windows,10.0,7b8458fb558ed8aeae2461372fcc99b6
22,1,"""","""","""","""","""",video-button-response,10,328580,0.0-10.0,0rf8fpms2,20922,"[""video/maybe_line_new_2_1cut.mp4""]",1,maybe_1,video/maybe_line_new_2_1cut.mp4,2022-01-25 02:14:10,100.15.29.197,"Mozilla/5.0 (Windows NT 10.0; Win64; x64) AppleWebKit/537.36 (KHTML, like Gecko) Chrome/97.0.4692.99 Safari/537.36",WebKit,Chrome,97.0.4692.99,Windows,10.0,7b8458fb558ed8aeae2461372fcc99b6
22,1,"""","""","""","""","""",video-button-response,11,337514,0.0-11.0,0rf8fpms2,8927,"[""video/yes_line_8_1cut.mp4""]",0,yes_1,video/yes_line_8_1cut.mp4,2022-01-25 02:14:10,100.15.29.197,"Mozilla/5.0 (Windows NT 10.0; Win64; x64) AppleWebKit/537.36 (KHTML, like Gecko) Chrome/97.0.4692.99 Safari/537.36",WebKit,Chrome,97.0.4692.99,Windows,10.0,7b8458fb558ed8aeae2461372fcc99b6
22,1,"""","""","""","""","""",video-button-response,12,355375,0.0-12.0,0rf8fpms2,17857,"[""video/maybe_line_new_1_1cut.mp4""]",0,maybe_1,video/maybe_line_new_1_1cut.mp4,2022-01-25 02:14:10,100.15.29.197,"Mozilla/5.0 (Windows NT 10.0; Win64; x64) AppleWebKit/537.36 (KHTML, like Gecko) Chrome/97.0.4692.99 Safari/537.36",WebKit,Chrome,97.0.4692.99,Windows,10.0,7b8458fb558ed8aeae2461372fcc99b6
22,1,"""","""","""","""","""",video-button-response,13,375606,0.0-13.0,0rf8fpms2,20226,"[""video/maybe_line_new_4_1cut.mp4""]",0,maybe_1,video/maybe_line_new_4_1cut.mp4,2022-01-25 02:14:10,100.15.29.197,"Mozilla/5.0 (Windows NT 10.0; Win64; x64) AppleWebKit/537.36 (KHTML, like Gecko) Chrome/97.0.4692.99 Safari/537.36",WebKit,Chrome,97.0.4692.99,Windows,10.0,7b8458fb558ed8aeae2461372fcc99b6
22,1,"""","""","""","""","""",video-button-response,14,390572,0.0-14.0,0rf8fpms2,14963,"[""video/no_line_2_1cut.mp4""]",1,no_1,video/no_line_2_1cut.mp4,2022-01-25 02:14:10,100.15.29.197,"Mozilla/5.0 (Windows NT 10.0; Win64; x64) AppleWebKit/537.36 (KHTML, like Gecko) Chrome/97.0.4692.99 Safari/537.36",WebKit,Chrome,97.0.4692.99,Windows,10.0,7b8458fb558ed8aeae2461372fcc99b6
22,1,"""","""","""","""","""",video-button-response,15,410857,0.0-15.0,0rf8fpms2,20281,"[""video/maybe_line_new_6_1cut.mp4""]",0,maybe_1,video/maybe_line_new_6_1cut.mp4,2022-01-25 02:14:10,100.15.29.197,"Mozilla/5.0 (Windows NT 10.0; Win64; x64) AppleWebKit/537.36 (KHTML, like Gecko) Chrome/97.0.4692.99 Safari/537.36",WebKit,Chrome,97.0.4692.99,Windows,10.0,7b8458fb558ed8aeae2461372fcc99b6
22,1,"""","""","""","""","""",video-button-response,16,441030,0.0-16.0,0rf8fpms2,30167,"[""video/maybe_line_new_3_1cut.mp4""]",0,maybe_1,video/maybe_line_new_3_1cut.mp4,2022-01-25 02:14:10,100.15.29.197,"Mozilla/5.0 (Windows NT 10.0; Win64; x64) AppleWebKit/537.36 (KHTML, like Gecko) Chrome/97.0.4692.99 Safari/537.36",WebKit,Chrome,97.0.4692.99,Windows,10.0,7b8458fb558ed8aeae2461372fcc99b6
22,1,"""","""","""","""","""",video-button-response,17,451565,0.0-17.0,0rf8fpms2,10531,"[""video/yes_line_9_1cut.mp4""]",0,yes_1,video/yes_line_9_1cut.mp4,2022-01-25 02:14:10,100.15.29.197,"Mozilla/5.0 (Windows NT 10.0; Win64; x64) AppleWebKit/537.36 (KHTML, like Gecko) Chrome/97.0.4692.99 Safari/537.36",WebKit,Chrome,97.0.4692.99,Windows,10.0,7b8458fb558ed8aeae2461372fcc99b6
22,1,"""","""","""","""","""",video-button-response,18,456667,0.0-18.0,0rf8fpms2,5099,"[""video/yes_line_7_1cut.mp4""]",0,yes_1,video/yes_line_7_1cut.mp4,2022-01-25 02:14:10,100.15.29.197,"Mozilla/5.0 (Windows NT 10.0; Win64; x64) AppleWebKit/537.36 (KHTML, like Gecko) Chrome/97.0.4692.99 Safari/537.36",WebKit,Chrome,97.0.4692.99,Windows,10.0,7b8458fb558ed8aeae2461372fcc99b6
22,1,"""","""","""","""","""",survey-html-form,19,502959,0.0-19.0,0rf8fpms2,46288,"""","[{""name"":""understand"",""value"":""yes""},{""name"":""problems"",""value"":""I did not observe any.""},{""name"":""age"",""value"":""27""},{""name"":""gender"",""value"":""male""},{""name"":""comments"",""value"":""I hope my data helps""}]",debrief,"""",2022-01-25 02:14:10,100.15.29.197,"Mozilla/5.0 (Windows NT 10.0; Win64; x64) AppleWebKit/537.36 (KHTML, like Gecko) Chrome/97.0.4692.99 Safari/537.36",WebKit,Chrome,97.0.4692.99,Windows,10.0,7b8458fb558ed8aeae2461372fcc99b6
22,1,"""","""","""","""","""",html-keyboard-response,20,543703,0.0-20.0,0rf8fpms2,40741,"<div style=""font-size:20px;"">This task is now over. The completion code is: 0rf8fpms2 Press space after you have the completion code to finish. Thank you for your participation! </div>", ,"""","""",2022-01-25 02:14:10,100.15.29.197,"Mozilla/5.0 (Windows NT 10.0; Win64; x64) AppleWebKit/537.36 (KHTML, like Gecko) Chrome/97.0.4692.99 Safari/537.36",WebKit,Chrome,97.0.4692.99,Windows,10.0,7b8458fb558ed8aeae2461372fcc99b6
23,1,true,false,[],[],[],preload,0,1419,0.0-0.0,de59e13vk,"""","""","""","""","""",2022-01-25 02:14:15,67.189.76.92,"Mozilla/5.0 (Windows NT 10.0; Win64; x64) AppleWebKit/537.36 (KHTML, like Gecko) Chrome/97.0.4692.99 Safari/537.36",WebKit,Chrome,97.0.4692.99,Windows,10.0,7b8458fb558ed8aeae2461372fcc99b6
23,1,"""","""","""","""","""",html-keyboard-response,1,4609,0.0-1.0,de59e13vk,3188,"<p style=""text-align:center;width:700px;""> Welcome to the experiment! This study takes most people around 15 minutes to complete. Please complete it in one sitting.</p>", ,"""","""",2022-01-25 02:14:15,67.189.76.92,"Mozilla/5.0 (Windows NT 10.0; Win64; x64) AppleWebKit/537.36 (KHTML, like Gecko) Chrome/97.0.4692.99 Safari/537.36",WebKit,Chrome,97.0.4692.99,Windows,10.0,7b8458fb558ed8aeae2461372fcc99b6
23,1,"""","""","""","""","""",html-keyboard-response,2,7896,0.0-2.0,de59e13vk,3287,"<p style = ""font-size:16px;"">MIT Computational Cognitive Science Lab</p><h4>Press the 'y' key to consent.</h4><div style = ""background-color:#f2f2f2;""><h3>Informed Consent Form</h3><div style=""text-align:left;width:700px;""><p style = ""font-size:16px;"">In this HIT, you will be asked to read a set of instructions that describe a particular scenario, and you will then be asked to perform a simple task relating to that scenario. There will also be comprehension and attention checks. Participants who do not answer these checks correctly cannot be approved. In order to get credit for this HIT, you must read all the questions fully and answer honestly. You may only complete this HIT once. If you complete this HIT multiple times, you will be rejected.</p><p style = ""font-size:16px;"">This HIT is part of a MIT scientific research project. Your decision to complete this HIT is voluntary. There is no way for us to identify you. The only information we will have, in addition to your responses, is the time at which you completed the survey. The results of the research may be presented at scientific meetings or published in scientific journals. Pressing the ""Y"" key indicates that you are at least 18 years of age, and agree to complete this HIT voluntarily. Press the ""Y"" key to confirm your agreement and continue.</p></div>",y,"""","""",2022-01-25 02:14:15,67.189.76.92,"Mozilla/5.0 (Windows NT 10.0; Win64; x64) AppleWebKit/537.36 (KHTML, like Gecko) Chrome/97.0.4692.99 Safari/537.36",WebKit,Chrome,97.0.4692.99,Windows,10.0,7b8458fb558ed8aeae2461372fcc99b6
23,1,"""","""","""","""","""",survey-text,3,124593,0.0-3.0,de59e13vk,116689,"""","{""instructions1"":""collect water, put in storage bucket""}",instructions,"""",2022-01-25 02:14:15,67.189.76.92,"Mozilla/5.0 (Windows NT 10.0; Win64; x64) AppleWebKit/537.36 (KHTML, like Gecko) Chrome/97.0.4692.99 Safari/537.36",WebKit,Chrome,97.0.4692.99,Windows,10.0,7b8458fb558ed8aeae2461372fcc99b6
23,1,"""","""","""","""","""",survey-text,4,150583,0.0-4.0,de59e13vk,25983,"""","{""instructions2"":""1""}",instructions,"""",2022-01-25 02:14:15,67.189.76.92,"Mozilla/5.0 (Windows NT 10.0; Win64; x64) AppleWebKit/537.36 (KHTML, like Gecko) Chrome/97.0.4692.99 Safari/537.36",WebKit,Chrome,97.0.4692.99,Windows,10.0,7b8458fb558ed8aeae2461372fcc99b6
23,1,"""","""","""","""","""",survey-text,5,211441,0.0-5.0,de59e13vk,60854,"""","{""instructions4"":""think about what will happen next""}",instructions,"""",2022-01-25 02:14:15,67.189.76.92,"Mozilla/5.0 (Windows NT 10.0; Win64; x64) AppleWebKit/537.36 (KHTML, like Gecko) Chrome/97.0.4692.99 Safari/537.36",WebKit,Chrome,97.0.4692.99,Windows,10.0,7b8458fb558ed8aeae2461372fcc99b6
23,1,"""","""","""","""","""",video-button-response,6,241976,0.0-6.0,de59e13vk,30532,"[""video/no_line_1_1cut.mp4""]",0,no_1,video/no_line_1_1cut.mp4,2022-01-25 02:14:15,67.189.76.92,"Mozilla/5.0 (Windows NT 10.0; Win64; x64) AppleWebKit/537.36 (KHTML, like Gecko) Chrome/97.0.4692.99 Safari/537.36",WebKit,Chrome,97.0.4692.99,Windows,10.0,7b8458fb558ed8aeae2461372fcc99b6
23,1,"""","""","""","""","""",video-button-response,7,254228,0.0-7.0,de59e13vk,12249,"[""video/maybe_line_new_5_1cut.mp4""]",0,maybe_1,video/maybe_line_new_5_1cut.mp4,2022-01-25 02:14:15,67.189.76.92,"Mozilla/5.0 (Windows NT 10.0; Win64; x64) AppleWebKit/537.36 (KHTML, like Gecko) Chrome/97.0.4692.99 Safari/537.36",WebKit,Chrome,97.0.4692.99,Windows,10.0,7b8458fb558ed8aeae2461372fcc99b6
23,1,"""","""","""","""","""",video-button-response,8,267687,0.0-8.0,de59e13vk,13457,"[""video/maybe_line_new_4_1cut.mp4""]",0,maybe_1,video/maybe_line_new_4_1cut.mp4,2022-01-25 02:14:15,67.189.76.92,"Mozilla/5.0 (Windows NT 10.0; Win64; x64) AppleWebKit/537.36 (KHTML, like Gecko) Chrome/97.0.4692.99 Safari/537.36",WebKit,Chrome,97.0.4692.99,Windows,10.0,7b8458fb558ed8aeae2461372fcc99b6
23,1,"""","""","""","""","""",video-button-response,9,278570,0.0-9.0,de59e13vk,10880,"[""video/no_line_3_1cut.mp4""]",0,no_1,video/no_line_3_1cut.mp4,2022-01-25 02:14:15,67.189.76.92,"Mozilla/5.0 (Windows NT 10.0; Win64; x64) AppleWebKit/537.36 (KHTML, like Gecko) Chrome/97.0.4692.99 Safari/537.36",WebKit,Chrome,97.0.4692.99,Windows,10.0,7b8458fb558ed8aeae2461372fcc99b6
23,1,"""","""","""","""","""",video-button-response,10,291039,0.0-10.0,de59e13vk,12467,"[""video/yes_line_9_1cut.mp4""]",0,yes_1,video/yes_line_9_1cut.mp4,2022-01-25 02:14:15,67.189.76.92,"Mozilla/5.0 (Windows NT 10.0; Win64; x64) AppleWebKit/537.36 (KHTML, like Gecko) Chrome/97.0.4692.99 Safari/537.36",WebKit,Chrome,97.0.4692.99,Windows,10.0,7b8458fb558ed8aeae2461372fcc99b6
23,1,"""","""","""","""","""",video-button-response,11,305631,0.0-11.0,de59e13vk,14587,"[""video/no_line_2_1cut.mp4""]",1,no_1,video/no_line_2_1cut.mp4,2022-01-25 02:14:15,67.189.76.92,"Mozilla/5.0 (Windows NT 10.0; Win64; x64) AppleWebKit/537.36 (KHTML, like Gecko) Chrome/97.0.4692.99 Safari/537.36",WebKit,Chrome,97.0.4692.99,Windows,10.0,7b8458fb558ed8aeae2461372fcc99b6
23,1,"""","""","""","""","""",video-button-response,12,311496,0.0-12.0,de59e13vk,5863,"[""video/yes_line_10_1cut.mp4""]",0,yes_1,video/yes_line_10_1cut.mp4,2022-01-25 02:14:15,67.189.76.92,"Mozilla/5.0 (Windows NT 10.0; Win64; x64) AppleWebKit/537.36 (KHTML, like Gecko) Chrome/97.0.4692.99 Safari/537.36",WebKit,Chrome,97.0.4692.99,Windows,10.0,7b8458fb558ed8aeae2461372fcc99b6
23,1,"""","""","""","""","""",video-button-response,13,322138,0.0-13.0,de59e13vk,10638,"[""video/maybe_line_new_6_1cut.mp4""]",0,maybe_1,video/maybe_line_new_6_1cut.mp4,2022-01-25 02:14:15,67.189.76.92,"Mozilla/5.0 (Windows NT 10.0; Win64; x64) AppleWebKit/537.36 (KHTML, like Gecko) Chrome/97.0.4692.99 Safari/537.36",WebKit,Chrome,97.0.4692.99,Windows,10.0,7b8458fb558ed8aeae2461372fcc99b6
23,1,"""","""","""","""","""",video-button-response,14,334412,0.0-14.0,de59e13vk,12273,"[""video/yes_line_7_1cut.mp4""]",0,yes_1,video/yes_line_7_1cut.mp4,2022-01-25 02:14:15,67.189.76.92,"Mozilla/5.0 (Windows NT 10.0; Win64; x64) AppleWebKit/537.36 (KHTML, like Gecko) Chrome/97.0.4692.99 Safari/537.36",WebKit,Chrome,97.0.4692.99,Windows,10.0,7b8458fb558ed8aeae2461372fcc99b6
23,1,"""","""","""","""","""",video-button-response,15,342666,0.0-15.0,de59e13vk,8251,"[""video/maybe_line_new_1_1cut.mp4""]",0,maybe_1,video/maybe_line_new_1_1cut.mp4,2022-01-25 02:14:15,67.189.76.92,"Mozilla/5.0 (Windows NT 10.0; Win64; x64) AppleWebKit/537.36 (KHTML, like Gecko) Chrome/97.0.4692.99 Safari/537.36",WebKit,Chrome,97.0.4692.99,Windows,10.0,7b8458fb558ed8aeae2461372fcc99b6
23,1,"""","""","""","""","""",video-button-response,16,348374,0.0-16.0,de59e13vk,5706,"[""video/yes_line_8_1cut.mp4""]",0,yes_1,video/yes_line_8_1cut.mp4,2022-01-25 02:14:15,67.189.76.92,"Mozilla/5.0 (Windows NT 10.0; Win64; x64) AppleWebKit/537.36 (KHTML, like Gecko) Chrome/97.0.4692.99 Safari/537.36",WebKit,Chrome,97.0.4692.99,Windows,10.0,7b8458fb558ed8aeae2461372fcc99b6
23,1,"""","""","""","""","""",video-button-response,17,358272,0.0-17.0,de59e13vk,9895,"[""video/maybe_line_new_3_1cut.mp4""]",0,maybe_1,video/maybe_line_new_3_1cut.mp4,2022-01-25 02:14:15,67.189.76.92,"Mozilla/5.0 (Windows NT 10.0; Win64; x64) AppleWebKit/537.36 (KHTML, like Gecko) Chrome/97.0.4692.99 Safari/537.36",WebKit,Chrome,97.0.4692.99,Windows,10.0,7b8458fb558ed8aeae2461372fcc99b6
23,1,"""","""","""","""","""",video-button-response,18,364606,0.0-18.0,de59e13vk,6332,"[""video/maybe_line_new_2_1cut.mp4""]",0,maybe_1,video/maybe_line_new_2_1cut.mp4,2022-01-25 02:14:15,67.189.76.92,"Mozilla/5.0 (Windows NT 10.0; Win64; x64) AppleWebKit/537.36 (KHTML, like Gecko) Chrome/97.0.4692.99 Safari/537.36",WebKit,Chrome,97.0.4692.99,Windows,10.0,7b8458fb558ed8aeae2461372fcc99b6
23,1,"""","""","""","""","""",survey-html-form,19,393551,0.0-19.0,de59e13vk,28943,"""","[{""name"":""understand"",""value"":""yes""},{""name"":""problems"",""value"":""no""},{""name"":""age"",""value"":""57""},{""name"":""gender"",""value"":""male""},{""name"":""comments"",""value"":""Interesting HIT""}]",debrief,"""",2022-01-25 02:14:15,67.189.76.92,"Mozilla/5.0 (Windows NT 10.0; Win64; x64) AppleWebKit/537.36 (KHTML, like Gecko) Chrome/97.0.4692.99 Safari/537.36",WebKit,Chrome,97.0.4692.99,Windows,10.0,7b8458fb558ed8aeae2461372fcc99b6
23,1,"""","""","""","""","""",html-keyboard-response,20,536769,0.0-20.0,de59e13vk,143216,"<div style=""font-size:20px;"">This task is now over. The completion code is: de59e13vk Press space after you have the completion code to finish. Thank you for your participation! </div>", ,"""","""",2022-01-25 02:14:15,67.189.76.92,"Mozilla/5.0 (Windows NT 10.0; Win64; x64) AppleWebKit/537.36 (KHTML, like Gecko) Chrome/97.0.4692.99 Safari/537.36",WebKit,Chrome,97.0.4692.99,Windows,10.0,7b8458fb558ed8aeae2461372fcc99b6
18,1,true,false,[],[],[],preload,0,1502,0.0-0.0,6jj18cppe,"""","""","""","""","""",2022-01-25 02:11:22,72.255.194.153,"Mozilla/5.0 (Windows NT 10.0; Win64; x64) AppleWebKit/537.36 (KHTML, like Gecko) Chrome/97.0.4692.99 Safari/537.36",WebKit,Chrome,97.0.4692.99,Windows,10.0,7b8458fb558ed8aeae2461372fcc99b6
18,1,"""","""","""","""","""",html-keyboard-response,1,4281,0.0-1.0,6jj18cppe,2776,"<p style=""text-align:center;width:700px;""> Welcome to the experiment! This study takes most people around 15 minutes to complete. Please complete it in one sitting.</p>", ,"""","""",2022-01-25 02:11:22,72.255.194.153,"Mozilla/5.0 (Windows NT 10.0; Win64; x64) AppleWebKit/537.36 (KHTML, like Gecko) Chrome/97.0.4692.99 Safari/537.36",WebKit,Chrome,97.0.4692.99,Windows,10.0,7b8458fb558ed8aeae2461372fcc99b6
18,1,"""","""","""","""","""",html-keyboard-response,2,6274,0.0-2.0,6jj18cppe,1992,"<p style = ""font-size:16px;"">MIT Computational Cognitive Science Lab</p><h4>Press the 'y' key to consent.</h4><div style = ""background-color:#f2f2f2;""><h3>Informed Consent Form</h3><div style=""text-align:left;width:700px;""><p style = ""font-size:16px;"">In this HIT, you will be asked to read a set of instructions that describe a particular scenario, and you will then be asked to perform a simple task relating to that scenario. There will also be comprehension and attention checks. Participants who do not answer these checks correctly cannot be approved. In order to get credit for this HIT, you must read all the questions fully and answer honestly. You may only complete this HIT once. If you complete this HIT multiple times, you will be rejected.</p><p style = ""font-size:16px;"">This HIT is part of a MIT scientific research project. Your decision to complete this HIT is voluntary. There is no way for us to identify you. The only information we will have, in addition to your responses, is the time at which you completed the survey. The results of the research may be presented at scientific meetings or published in scientific journals. Pressing the ""Y"" key indicates that you are at least 18 years of age, and agree to complete this HIT voluntarily. Press the ""Y"" key to confirm your agreement and continue.</p></div>",y,"""","""",2022-01-25 02:11:22,72.255.194.153,"Mozilla/5.0 (Windows NT 10.0; Win64; x64) AppleWebKit/537.36 (KHTML, like Gecko) Chrome/97.0.4692.99 Safari/537.36",WebKit,Chrome,97.0.4692.99,Windows,10.0,7b8458fb558ed8aeae2461372fcc99b6
18,1,"""","""","""","""","""",survey-text,3,52352,0.0-3.0,6jj18cppe,46074,"""","{""instructions1"":""to collect water and fill up a wooden storage bucket with it""}",instructions,"""",2022-01-25 02:11:22,72.255.194.153,"Mozilla/5.0 (Windows NT 10.0; Win64; x64) AppleWebKit/537.36 (KHTML, like Gecko) Chrome/97.0.4692.99 Safari/537.36",WebKit,Chrome,97.0.4692.99,Windows,10.0,7b8458fb558ed8aeae2461372fcc99b6
18,1,"""","""","""","""","""",survey-text,4,65330,0.0-4.0,6jj18cppe,12971,"""","{""instructions2"":""1""}",instructions,"""",2022-01-25 02:11:22,72.255.194.153,"Mozilla/5.0 (Windows NT 10.0; Win64; x64) AppleWebKit/537.36 (KHTML, like Gecko) Chrome/97.0.4692.99 Safari/537.36",WebKit,Chrome,97.0.4692.99,Windows,10.0,7b8458fb558ed8aeae2461372fcc99b6
18,1,"""","""","""","""","""",survey-text,5,110857,0.0-5.0,6jj18cppe,45524,"""","{""instructions4"":""after the character makes a decision to leave or stay in the line.""}",instructions,"""",2022-01-25 02:11:22,72.255.194.153,"Mozilla/5.0 (Windows NT 10.0; Win64; x64) AppleWebKit/537.36 (KHTML, like Gecko) Chrome/97.0.4692.99 Safari/537.36",WebKit,Chrome,97.0.4692.99,Windows,10.0,7b8458fb558ed8aeae2461372fcc99b6
18,1,"""","""","""","""","""",video-button-response,6,125752,0.0-6.0,6jj18cppe,14890,"[""video/yes_line_9_1cut.mp4""]",0,yes_1,video/yes_line_9_1cut.mp4,2022-01-25 02:11:22,72.255.194.153,"Mozilla/5.0 (Windows NT 10.0; Win64; x64) AppleWebKit/537.36 (KHTML, like Gecko) Chrome/97.0.4692.99 Safari/537.36",WebKit,Chrome,97.0.4692.99,Windows,10.0,7b8458fb558ed8aeae2461372fcc99b6
18,1,"""","""","""","""","""",video-button-response,7,136431,0.0-7.0,6jj18cppe,10676,"[""video/no_line_3_1cut.mp4""]",0,no_1,video/no_line_3_1cut.mp4,2022-01-25 02:11:22,72.255.194.153,"Mozilla/5.0 (Windows NT 10.0; Win64; x64) AppleWebKit/537.36 (KHTML, like Gecko) Chrome/97.0.4692.99 Safari/537.36",WebKit,Chrome,97.0.4692.99,Windows,10.0,7b8458fb558ed8aeae2461372fcc99b6
18,1,"""","""","""","""","""",video-button-response,8,146047,0.0-8.0,6jj18cppe,9611,"[""video/maybe_line_new_5_1cut.mp4""]",0,maybe_1,video/maybe_line_new_5_1cut.mp4,2022-01-25 02:11:22,72.255.194.153,"Mozilla/5.0 (Windows NT 10.0; Win64; x64) AppleWebKit/537.36 (KHTML, like Gecko) Chrome/97.0.4692.99 Safari/537.36",WebKit,Chrome,97.0.4692.99,Windows,10.0,7b8458fb558ed8aeae2461372fcc99b6
18,1,"""","""","""","""","""",video-button-response,9,151523,0.0-9.0,6jj18cppe,5472,"[""video/yes_line_7_1cut.mp4""]",0,yes_1,video/yes_line_7_1cut.mp4,2022-01-25 02:11:22,72.255.194.153,"Mozilla/5.0 (Windows NT 10.0; Win64; x64) AppleWebKit/537.36 (KHTML, like Gecko) Chrome/97.0.4692.99 Safari/537.36",WebKit,Chrome,97.0.4692.99,Windows,10.0,7b8458fb558ed8aeae2461372fcc99b6
18,1,"""","""","""","""","""",video-button-response,10,155439,0.0-10.0,6jj18cppe,3913,"[""video/no_line_1_1cut.mp4""]",0,no_1,video/no_line_1_1cut.mp4,2022-01-25 02:11:22,72.255.194.153,"Mozilla/5.0 (Windows NT 10.0; Win64; x64) AppleWebKit/537.36 (KHTML, like Gecko) Chrome/97.0.4692.99 Safari/537.36",WebKit,Chrome,97.0.4692.99,Windows,10.0,7b8458fb558ed8aeae2461372fcc99b6
18,1,"""","""","""","""","""",video-button-response,11,159287,0.0-11.0,6jj18cppe,3847,"[""video/maybe_line_new_3_1cut.mp4""]",0,maybe_1,video/maybe_line_new_3_1cut.mp4,2022-01-25 02:11:22,72.255.194.153,"Mozilla/5.0 (Windows NT 10.0; Win64; x64) AppleWebKit/537.36 (KHTML, like Gecko) Chrome/97.0.4692.99 Safari/537.36",WebKit,Chrome,97.0.4692.99,Windows,10.0,7b8458fb558ed8aeae2461372fcc99b6
18,1,"""","""","""","""","""",video-button-response,12,164155,0.0-12.0,6jj18cppe,4864,"[""video/yes_line_10_1cut.mp4""]",0,yes_1,video/yes_line_10_1cut.mp4,2022-01-25 02:11:22,72.255.194.153,"Mozilla/5.0 (Windows NT 10.0; Win64; x64) AppleWebKit/537.36 (KHTML, like Gecko) Chrome/97.0.4692.99 Safari/537.36",WebKit,Chrome,97.0.4692.99,Windows,10.0,7b8458fb558ed8aeae2461372fcc99b6
18,1,"""","""","""","""","""",video-button-response,13,169903,0.0-13.0,6jj18cppe,5747,"[""video/maybe_line_new_2_1cut.mp4""]",0,maybe_1,video/maybe_line_new_2_1cut.mp4,2022-01-25 02:11:22,72.255.194.153,"Mozilla/5.0 (Windows NT 10.0; Win64; x64) AppleWebKit/537.36 (KHTML, like Gecko) Chrome/97.0.4692.99 Safari/537.36",WebKit,Chrome,97.0.4692.99,Windows,10.0,7b8458fb558ed8aeae2461372fcc99b6
18,1,"""","""","""","""","""",video-button-response,14,180335,0.0-14.0,6jj18cppe,10429,"[""video/maybe_line_new_4_1cut.mp4""]",0,maybe_1,video/maybe_line_new_4_1cut.mp4,2022-01-25 02:11:22,72.255.194.153,"Mozilla/5.0 (Windows NT 10.0; Win64; x64) AppleWebKit/537.36 (KHTML, like Gecko) Chrome/97.0.4692.99 Safari/537.36",WebKit,Chrome,97.0.4692.99,Windows,10.0,7b8458fb558ed8aeae2461372fcc99b6
18,1,"""","""","""","""","""",video-button-response,15,185592,0.0-15.0,6jj18cppe,5254,"[""video/no_line_2_1cut.mp4""]",1,no_1,video/no_line_2_1cut.mp4,2022-01-25 02:11:22,72.255.194.153,"Mozilla/5.0 (Windows NT 10.0; Win64; x64) AppleWebKit/537.36 (KHTML, like Gecko) Chrome/97.0.4692.99 Safari/537.36",WebKit,Chrome,97.0.4692.99,Windows,10.0,7b8458fb558ed8aeae2461372fcc99b6
18,1,"""","""","""","""","""",video-button-response,16,198871,0.0-16.0,6jj18cppe,13276,"[""video/maybe_line_new_6_1cut.mp4""]",1,maybe_1,video/maybe_line_new_6_1cut.mp4,2022-01-25 02:11:22,72.255.194.153,"Mozilla/5.0 (Windows NT 10.0; Win64; x64) AppleWebKit/537.36 (KHTML, like Gecko) Chrome/97.0.4692.99 Safari/537.36",WebKit,Chrome,97.0.4692.99,Windows,10.0,7b8458fb558ed8aeae2461372fcc99b6
18,1,"""","""","""","""","""",video-button-response,17,211848,0.0-17.0,6jj18cppe,12975,"[""video/maybe_line_new_1_1cut.mp4""]",1,maybe_1,video/maybe_line_new_1_1cut.mp4,2022-01-25 02:11:22,72.255.194.153,"Mozilla/5.0 (Windows NT 10.0; Win64; x64) AppleWebKit/537.36 (KHTML, like Gecko) Chrome/97.0.4692.99 Safari/537.36",WebKit,Chrome,97.0.4692.99,Windows,10.0,7b8458fb558ed8aeae2461372fcc99b6
18,1,"""","""","""","""","""",video-button-response,18,220183,0.0-18.0,6jj18cppe,8334,"[""video/yes_line_8_1cut.mp4""]",0,yes_1,video/yes_line_8_1cut.mp4,2022-01-25 02:11:22,72.255.194.153,"Mozilla/5.0 (Windows NT 10.0; Win64; x64) AppleWebKit/537.36 (KHTML, like Gecko) Chrome/97.0.4692.99 Safari/537.36",WebKit,Chrome,97.0.4692.99,Windows,10.0,7b8458fb558ed8aeae2461372fcc99b6
18,1,"""","""","""","""","""",survey-html-form,19,234291,0.0-19.0,6jj18cppe,14107,"""","[{""name"":""understand"",""value"":""yes""},{""name"":""problems"",""value"":""none""},{""name"":""age"",""value"":""30""},{""name"":""gender"",""value"":""male""},{""name"":""comments"",""value"":""}]",debrief,"""",2022-01-25 02:11:22,72.255.194.153,"Mozilla/5.0 (Windows NT 10.0; Win64; x64) AppleWebKit/537.36 (KHTML, like Gecko) Chrome/97.0.4692.99 Safari/537.36",WebKit,Chrome,97.0.4692.99,Windows,10.0,7b8458fb558ed8aeae2461372fcc99b6
18,1,"""","""","""","""","""",html-keyboard-response,20,240639,0.0-20.0,6jj18cppe,6345,"<div style=""font-size:20px;"">This task is now over. The completion code is: 6jj18cppe Press space after you have the completion code to finish. Thank you for your participation! </div>", ,"""","""",2022-01-25 02:11:22,72.255.194.153,"Mozilla/5.0 (Windows NT 10.0; Win64; x64) AppleWebKit/537.36 (KHTML, like Gecko) Chrome/97.0.4692.99 Safari/537.36",WebKit,Chrome,97.0.4692.99,Windows,10.0,7b8458fb558ed8aeae2461372fcc99b6
24,1,true,false,[],[],[],preload,0,2187,0.0-0.0,6cmhm6e13,"""","""","""","""","""",2022-01-25 02:15:42,68.187.203.24,"Mozilla/5.0 (Windows NT 10.0; Win64; x64) AppleWebKit/537.36 (KHTML, like Gecko) Chrome/97.0.4692.71 Safari/537.36",WebKit,Chrome,97.0.4692.71,Windows,10.0,7b8458fb558ed8aeae2461372fcc99b6
24,1,"""","""","""","""","""",html-keyboard-response,1,48143,0.0-1.0,6cmhm6e13,45935,"<p style=""text-align:center;width:700px;""> Welcome to the experiment! This study takes most people around 15 minutes to complete. Please complete it in one sitting.</p>", ,"""","""",2022-01-25 02:15:42,68.187.203.24,"Mozilla/5.0 (Windows NT 10.0; Win64; x64) AppleWebKit/537.36 (KHTML, like Gecko) Chrome/97.0.4692.71 Safari/537.36",WebKit,Chrome,97.0.4692.71,Windows,10.0,7b8458fb558ed8aeae2461372fcc99b6
