run_id,condition,success,timeout,failed_images,failed_audio,failed_video,trial_type,trial_index,time_elapsed,internal_node_id,ID,rt,stimulus,response,trial_category,stimulus_name,recorded_at,ip,user_agent,device,browser,browser_version,platform,platform_version,source_code_version
10,1,true,false,[],[],[],preload,0,719,0.0-0.0,35ghnzrl9,"""","""","""","""","""",2022-01-29 00:47:52,24.88.146.255,"Mozilla/5.0 (Windows NT 10.0; Win64; x64) AppleWebKit/537.36 (KHTML, like Gecko) Chrome/97.0.4692.99 Safari/537.36",WebKit,Chrome,97.0.4692.99,Windows,10.0,4ea10649d1b3c5863b9e809baa721650
10,1,"""","""","""","""","""",html-keyboard-response,1,35844,0.0-1.0,35ghnzrl9,35123,"<p style=""text-align:center;width:700px;""> Welcome to the experiment! This study takes most people around 10 minutes to complete. Please complete it in one sitting.</p>", ,"""","""",2022-01-29 00:47:52,24.88.146.255,"Mozilla/5.0 (Windows NT 10.0; Win64; x64) AppleWebKit/537.36 (KHTML, like Gecko) Chrome/97.0.4692.99 Safari/537.36",WebKit,Chrome,97.0.4692.99,Windows,10.0,4ea10649d1b3c5863b9e809baa721650
10,1,"""","""","""","""","""",html-keyboard-response,2,39236,0.0-2.0,35ghnzrl9,3391,"<p style = ""font-size:16px;"">MIT Computational Cognitive Science Lab</p><h4>Press the 'y' key to consent.</h4><div style = ""background-color:#f2f2f2;""><h3>Informed Consent Form</h3><div style=""text-align:left;width:700px;""><p style = ""font-size:16px;"">In this HIT, you will be asked to read a set of instructions that describe a particular scenario, and you will then be asked to perform a simple task relating to that scenario. There will also be comprehension and attention checks. Participants who do not answer these checks correctly cannot be approved. In order to get credit for this HIT, you must read all the questions fully and answer honestly. You may only complete this HIT once. If you complete this HIT multiple times, you will be rejected.</p><p style = ""font-size:16px;"">This HIT is part of a MIT scientific research project. Your decision to complete this HIT is voluntary. There is no way for us to identify you. The only information we will have, in addition to your responses, is the time at which you completed the survey. The results of the research may be presented at scientific meetings or published in scientific journals. Pressing the ""Y"" key indicates that you are at least 18 years of age, and agree to complete this HIT voluntarily. Press the ""Y"" key to confirm your agreement and continue.</p></div>",y,"""","""",2022-01-29 00:47:52,24.88.146.255,"Mozilla/5.0 (Windows NT 10.0; Win64; x64) AppleWebKit/537.36 (KHTML, like Gecko) Chrome/97.0.4692.99 Safari/537.36",WebKit,Chrome,97.0.4692.99,Windows,10.0,4ea10649d1b3c5863b9e809baa721650
10,1,"""","""","""","""","""",survey-text,3,80522,0.0-3.0,35ghnzrl9,41284,"""","{""instructions1"":""To collect water from a water source and bring it back to the wooden storage buckets.""}",instructions,"""",2022-01-29 00:47:52,24.88.146.255,"Mozilla/5.0 (Windows NT 10.0; Win64; x64) AppleWebKit/537.36 (KHTML, like Gecko) Chrome/97.0.4692.99 Safari/537.36",WebKit,Chrome,97.0.4692.99,Windows,10.0,4ea10649d1b3c5863b9e809baa721650
10,1,"""","""","""","""","""",survey-text,4,112538,0.0-4.0,35ghnzrl9,32012,"""","{""instructions2"":""When all 8 people collect water and store it in a wooden storage bucket.""}",instructions,"""",2022-01-29 00:47:52,24.88.146.255,"Mozilla/5.0 (Windows NT 10.0; Win64; x64) AppleWebKit/537.36 (KHTML, like Gecko) Chrome/97.0.4692.99 Safari/537.36",WebKit,Chrome,97.0.4692.99,Windows,10.0,4ea10649d1b3c5863b9e809baa721650
10,1,"""","""","""","""","""",survey-text,5,182372,0.0-5.0,35ghnzrl9,69838,"""","{""instructions3"":""One""}",instructions,"""",2022-01-29 00:47:52,24.88.146.255,"Mozilla/5.0 (Windows NT 10.0; Win64; x64) AppleWebKit/537.36 (KHTML, like Gecko) Chrome/97.0.4692.99 Safari/537.36",WebKit,Chrome,97.0.4692.99,Windows,10.0,4ea10649d1b3c5863b9e809baa721650
10,1,"""","""","""","""","""",video-button-response,6,224652,0.0-6.0,35ghnzrl9,42278,"[""video/no_line_1_1cut.mp4""]",0,no_1,video/no_line_1_1cut.mp4,2022-01-29 00:47:52,24.88.146.255,"Mozilla/5.0 (Windows NT 10.0; Win64; x64) AppleWebKit/537.36 (KHTML, like Gecko) Chrome/97.0.4692.99 Safari/537.36",WebKit,Chrome,97.0.4692.99,Windows,10.0,4ea10649d1b3c5863b9e809baa721650
10,1,"""","""","""","""","""",video-button-response,7,268265,0.0-7.0,35ghnzrl9,43614,"[""video/yes_line_7_0cut.mp4""]",1,yes_0,video/yes_line_7_0cut.mp4,2022-01-29 00:47:52,24.88.146.255,"Mozilla/5.0 (Windows NT 10.0; Win64; x64) AppleWebKit/537.36 (KHTML, like Gecko) Chrome/97.0.4692.99 Safari/537.36",WebKit,Chrome,97.0.4692.99,Windows,10.0,4ea10649d1b3c5863b9e809baa721650
10,1,"""","""","""","""","""",video-button-response,8,335077,0.0-8.0,35ghnzrl9,66815,"[""video/yes_line_7_1cut.mp4""]",0,yes_1,video/yes_line_7_1cut.mp4,2022-01-29 00:47:52,24.88.146.255,"Mozilla/5.0 (Windows NT 10.0; Win64; x64) AppleWebKit/537.36 (KHTML, like Gecko) Chrome/97.0.4692.99 Safari/537.36",WebKit,Chrome,97.0.4692.99,Windows,10.0,4ea10649d1b3c5863b9e809baa721650
10,1,"""","""","""","""","""",video-button-response,9,421578,0.0-9.0,35ghnzrl9,86501,"[""video/no_line_1_0cut.mp4""]",1,no_0,video/no_line_1_0cut.mp4,2022-01-29 00:47:52,24.88.146.255,"Mozilla/5.0 (Windows NT 10.0; Win64; x64) AppleWebKit/537.36 (KHTML, like Gecko) Chrome/97.0.4692.99 Safari/537.36",WebKit,Chrome,97.0.4692.99,Windows,10.0,4ea10649d1b3c5863b9e809baa721650
10,1,"""","""","""","""","""",survey-html-form,10,479360,0.0-10.0,35ghnzrl9,57783,"""","[{""name"":""understand"",""value"":""yes""},{""name"":""problems"",""value"":""none""},{""name"":""age"",""value"":""35""},{""name"":""gender"",""value"":""male""},{""name"":""comments"",""value"":""N/A...thank you for the opportunity for these studies, I find them interesting and fun!""}]",debrief,"""",2022-01-29 00:47:52,24.88.146.255,"Mozilla/5.0 (Windows NT 10.0; Win64; x64) AppleWebKit/537.36 (KHTML, like Gecko) Chrome/97.0.4692.99 Safari/537.36",WebKit,Chrome,97.0.4692.99,Windows,10.0,4ea10649d1b3c5863b9e809baa721650
10,1,"""","""","""","""","""",survey-text,11,498128,0.0-11.0,35ghnzrl9,18763,"""","{""Q0"":""35ghnzrl9""}","""","""",2022-01-29 00:47:52,24.88.146.255,"Mozilla/5.0 (Windows NT 10.0; Win64; x64) AppleWebKit/537.36 (KHTML, like Gecko) Chrome/97.0.4692.99 Safari/537.36",WebKit,Chrome,97.0.4692.99,Windows,10.0,4ea10649d1b3c5863b9e809baa721650
11,1,true,false,[],[],[],preload,0,1102,0.0-0.0,115zy1mhm,"""","""","""","""","""",2022-01-29 00:47:59,52.128.53.190,"Mozilla/5.0 (Windows NT 10.0; Win64; x64) AppleWebKit/537.36 (KHTML, like Gecko) Chrome/97.0.4692.99 Safari/537.36",WebKit,Chrome,97.0.4692.99,Windows,10.0,4ea10649d1b3c5863b9e809baa721650
11,1,"""","""","""","""","""",html-keyboard-response,1,2163,0.0-1.0,115zy1mhm,1059,"<p style=""text-align:center;width:700px;""> Welcome to the experiment! This study takes most people around 10 minutes to complete. Please complete it in one sitting.</p>", ,"""","""",2022-01-29 00:47:59,52.128.53.190,"Mozilla/5.0 (Windows NT 10.0; Win64; x64) AppleWebKit/537.36 (KHTML, like Gecko) Chrome/97.0.4692.99 Safari/537.36",WebKit,Chrome,97.0.4692.99,Windows,10.0,4ea10649d1b3c5863b9e809baa721650
11,1,"""","""","""","""","""",html-keyboard-response,2,3952,0.0-2.0,115zy1mhm,1789,"<p style = ""font-size:16px;"">MIT Computational Cognitive Science Lab</p><h4>Press the 'y' key to consent.</h4><div style = ""background-color:#f2f2f2;""><h3>Informed Consent Form</h3><div style=""text-align:left;width:700px;""><p style = ""font-size:16px;"">In this HIT, you will be asked to read a set of instructions that describe a particular scenario, and you will then be asked to perform a simple task relating to that scenario. There will also be comprehension and attention checks. Participants who do not answer these checks correctly cannot be approved. In order to get credit for this HIT, you must read all the questions fully and answer honestly. You may only complete this HIT once. If you complete this HIT multiple times, you will be rejected.</p><p style = ""font-size:16px;"">This HIT is part of a MIT scientific research project. Your decision to complete this HIT is voluntary. There is no way for us to identify you. The only information we will have, in addition to your responses, is the time at which you completed the survey. The results of the research may be presented at scientific meetings or published in scientific journals. Pressing the ""Y"" key indicates that you are at least 18 years of age, and agree to complete this HIT voluntarily. Press the ""Y"" key to confirm your agreement and continue.</p></div>",y,"""","""",2022-01-29 00:47:59,52.128.53.190,"Mozilla/5.0 (Windows NT 10.0; Win64; x64) AppleWebKit/537.36 (KHTML, like Gecko) Chrome/97.0.4692.99 Safari/537.36",WebKit,Chrome,97.0.4692.99,Windows,10.0,4ea10649d1b3c5863b9e809baa721650
11,1,"""","""","""","""","""",survey-text,3,36682,0.0-3.0,115zy1mhm,32725,"""","{""instructions1"":""To collect water and bring it back.""}",instructions,"""",2022-01-29 00:47:59,52.128.53.190,"Mozilla/5.0 (Windows NT 10.0; Win64; x64) AppleWebKit/537.36 (KHTML, like Gecko) Chrome/97.0.4692.99 Safari/537.36",WebKit,Chrome,97.0.4692.99,Windows,10.0,4ea10649d1b3c5863b9e809baa721650
11,1,"""","""","""","""","""",survey-text,4,74905,0.0-4.0,115zy1mhm,38218,"""","{""instructions2"":""When all 8 people collect the water and store it.""}",instructions,"""",2022-01-29 00:47:59,52.128.53.190,"Mozilla/5.0 (Windows NT 10.0; Win64; x64) AppleWebKit/537.36 (KHTML, like Gecko) Chrome/97.0.4692.99 Safari/537.36",WebKit,Chrome,97.0.4692.99,Windows,10.0,4ea10649d1b3c5863b9e809baa721650
11,1,"""","""","""","""","""",survey-text,5,133267,0.0-5.0,115zy1mhm,58361,"""","{""instructions3"":""1""}",instructions,"""",2022-01-29 00:47:59,52.128.53.190,"Mozilla/5.0 (Windows NT 10.0; Win64; x64) AppleWebKit/537.36 (KHTML, like Gecko) Chrome/97.0.4692.99 Safari/537.36",WebKit,Chrome,97.0.4692.99,Windows,10.0,4ea10649d1b3c5863b9e809baa721650
11,1,"""","""","""","""","""",video-button-response,6,163739,0.0-6.0,115zy1mhm,30469,"[""video/yes_line_7_1cut.mp4""]",0,yes_1,video/yes_line_7_1cut.mp4,2022-01-29 00:47:59,52.128.53.190,"Mozilla/5.0 (Windows NT 10.0; Win64; x64) AppleWebKit/537.36 (KHTML, like Gecko) Chrome/97.0.4692.99 Safari/537.36",WebKit,Chrome,97.0.4692.99,Windows,10.0,4ea10649d1b3c5863b9e809baa721650
11,1,"""","""","""","""","""",video-button-response,7,193374,0.0-7.0,115zy1mhm,29633,"[""video/yes_line_7_0cut.mp4""]",1,yes_0,video/yes_line_7_0cut.mp4,2022-01-29 00:47:59,52.128.53.190,"Mozilla/5.0 (Windows NT 10.0; Win64; x64) AppleWebKit/537.36 (KHTML, like Gecko) Chrome/97.0.4692.99 Safari/537.36",WebKit,Chrome,97.0.4692.99,Windows,10.0,4ea10649d1b3c5863b9e809baa721650
11,1,"""","""","""","""","""",video-button-response,8,223857,0.0-8.0,115zy1mhm,30481,"[""video/no_line_1_1cut.mp4""]",1,no_1,video/no_line_1_1cut.mp4,2022-01-29 00:47:59,52.128.53.190,"Mozilla/5.0 (Windows NT 10.0; Win64; x64) AppleWebKit/537.36 (KHTML, like Gecko) Chrome/97.0.4692.99 Safari/537.36",WebKit,Chrome,97.0.4692.99,Windows,10.0,4ea10649d1b3c5863b9e809baa721650
11,1,"""","""","""","""","""",video-button-response,9,257186,0.0-9.0,115zy1mhm,33328,"[""video/no_line_1_0cut.mp4""]",1,no_0,video/no_line_1_0cut.mp4,2022-01-29 00:47:59,52.128.53.190,"Mozilla/5.0 (Windows NT 10.0; Win64; x64) AppleWebKit/537.36 (KHTML, like Gecko) Chrome/97.0.4692.99 Safari/537.36",WebKit,Chrome,97.0.4692.99,Windows,10.0,4ea10649d1b3c5863b9e809baa721650
11,1,"""","""","""","""","""",survey-html-form,10,309780,0.0-10.0,115zy1mhm,52593,"""","[{""name"":""understand"",""value"":""yes""},{""name"":""problems"",""value"":""No problems.""},{""name"":""age"",""value"":""28""},{""name"":""gender"",""value"":""male""},{""name"":""comments"",""value"":""This is similar to a study that was run a few days ago and I didn't see anything about banning retakes. If that was your intention, you might want to consider using qualifications in the future to filter out those who have done this already.""}]",debrief,"""",2022-01-29 00:47:59,52.128.53.190,"Mozilla/5.0 (Windows NT 10.0; Win64; x64) AppleWebKit/537.36 (KHTML, like Gecko) Chrome/97.0.4692.99 Safari/537.36",WebKit,Chrome,97.0.4692.99,Windows,10.0,4ea10649d1b3c5863b9e809baa721650
11,1,"""","""","""","""","""",survey-text,11,317194,0.0-11.0,115zy1mhm,7409,"""","{""Q0"":""115zy1mhm""}","""","""",2022-01-29 00:47:59,52.128.53.190,"Mozilla/5.0 (Windows NT 10.0; Win64; x64) AppleWebKit/537.36 (KHTML, like Gecko) Chrome/97.0.4692.99 Safari/537.36",WebKit,Chrome,97.0.4692.99,Windows,10.0,4ea10649d1b3c5863b9e809baa721650
13,1,true,false,[],[],[],preload,0,2106,0.0-0.0,9ne4gacvg,"""","""","""","""","""",2022-01-29 00:49:10,107.77.218.35,"Mozilla/5.0 (Windows NT 10.0; Win64; x64) AppleWebKit/537.36 (KHTML, like Gecko) Chrome/97.0.4692.99 Safari/537.36",WebKit,Chrome,97.0.4692.99,Windows,10.0,4ea10649d1b3c5863b9e809baa721650
13,1,"""","""","""","""","""",html-keyboard-response,1,5300,0.0-1.0,9ne4gacvg,3187,"<p style=""text-align:center;width:700px;""> Welcome to the experiment! This study takes most people around 10 minutes to complete. Please complete it in one sitting.</p>", ,"""","""",2022-01-29 00:49:10,107.77.218.35,"Mozilla/5.0 (Windows NT 10.0; Win64; x64) AppleWebKit/537.36 (KHTML, like Gecko) Chrome/97.0.4692.99 Safari/537.36",WebKit,Chrome,97.0.4692.99,Windows,10.0,4ea10649d1b3c5863b9e809baa721650
13,1,"""","""","""","""","""",html-keyboard-response,2,21358,0.0-2.0,9ne4gacvg,16056,"<p style = ""font-size:16px;"">MIT Computational Cognitive Science Lab</p><h4>Press the 'y' key to consent.</h4><div style = ""background-color:#f2f2f2;""><h3>Informed Consent Form</h3><div style=""text-align:left;width:700px;""><p style = ""font-size:16px;"">In this HIT, you will be asked to read a set of instructions that describe a particular scenario, and you will then be asked to perform a simple task relating to that scenario. There will also be comprehension and attention checks. Participants who do not answer these checks correctly cannot be approved. In order to get credit for this HIT, you must read all the questions fully and answer honestly. You may only complete this HIT once. If you complete this HIT multiple times, you will be rejected.</p><p style = ""font-size:16px;"">This HIT is part of a MIT scientific research project. Your decision to complete this HIT is voluntary. There is no way for us to identify you. The only information we will have, in addition to your responses, is the time at which you completed the survey. The results of the research may be presented at scientific meetings or published in scientific journals. Pressing the ""Y"" key indicates that you are at least 18 years of age, and agree to complete this HIT voluntarily. Press the ""Y"" key to confirm your agreement and continue.</p></div>",y,"""","""",2022-01-29 00:49:10,107.77.218.35,"Mozilla/5.0 (Windows NT 10.0; Win64; x64) AppleWebKit/537.36 (KHTML, like Gecko) Chrome/97.0.4692.99 Safari/537.36",WebKit,Chrome,97.0.4692.99,Windows,10.0,4ea10649d1b3c5863b9e809baa721650
13,1,"""","""","""","""","""",survey-text,3,65962,0.0-3.0,9ne4gacvg,44594,"""","{""instructions1"":""Collect water from a water source and bring it back to the wooden storage buckets.""}",instructions,"""",2022-01-29 00:49:10,107.77.218.35,"Mozilla/5.0 (Windows NT 10.0; Win64; x64) AppleWebKit/537.36 (KHTML, like Gecko) Chrome/97.0.4692.99 Safari/537.36",WebKit,Chrome,97.0.4692.99,Windows,10.0,4ea10649d1b3c5863b9e809baa721650
13,1,"""","""","""","""","""",survey-text,4,122494,0.0-4.0,9ne4gacvg,56523,"""","{""instructions2"":""When all 8 people collect water and store it in a wooden storage bucket.""}",instructions,"""",2022-01-29 00:49:10,107.77.218.35,"Mozilla/5.0 (Windows NT 10.0; Win64; x64) AppleWebKit/537.36 (KHTML, like Gecko) Chrome/97.0.4692.99 Safari/537.36",WebKit,Chrome,97.0.4692.99,Windows,10.0,4ea10649d1b3c5863b9e809baa721650
13,1,"""","""","""","""","""",survey-text,5,164155,0.0-5.0,9ne4gacvg,41654,"""","{""instructions3"":""1""}",instructions,"""",2022-01-29 00:49:10,107.77.218.35,"Mozilla/5.0 (Windows NT 10.0; Win64; x64) AppleWebKit/537.36 (KHTML, like Gecko) Chrome/97.0.4692.99 Safari/537.36",WebKit,Chrome,97.0.4692.99,Windows,10.0,4ea10649d1b3c5863b9e809baa721650
13,1,"""","""","""","""","""",video-button-response,6,229127,0.0-6.0,9ne4gacvg,64964,"[""video/no_line_1_1cut.mp4""]",0,no_1,video/no_line_1_1cut.mp4,2022-01-29 00:49:10,107.77.218.35,"Mozilla/5.0 (Windows NT 10.0; Win64; x64) AppleWebKit/537.36 (KHTML, like Gecko) Chrome/97.0.4692.99 Safari/537.36",WebKit,Chrome,97.0.4692.99,Windows,10.0,4ea10649d1b3c5863b9e809baa721650
13,1,"""","""","""","""","""",video-button-response,7,294694,0.0-7.0,9ne4gacvg,65562,"[""video/yes_line_7_0cut.mp4""]",1,yes_0,video/yes_line_7_0cut.mp4,2022-01-29 00:49:10,107.77.218.35,"Mozilla/5.0 (Windows NT 10.0; Win64; x64) AppleWebKit/537.36 (KHTML, like Gecko) Chrome/97.0.4692.99 Safari/537.36",WebKit,Chrome,97.0.4692.99,Windows,10.0,4ea10649d1b3c5863b9e809baa721650
13,1,"""","""","""","""","""",video-button-response,8,325648,0.0-8.0,9ne4gacvg,30951,"[""video/yes_line_7_1cut.mp4""]",0,yes_1,video/yes_line_7_1cut.mp4,2022-01-29 00:49:10,107.77.218.35,"Mozilla/5.0 (Windows NT 10.0; Win64; x64) AppleWebKit/537.36 (KHTML, like Gecko) Chrome/97.0.4692.99 Safari/537.36",WebKit,Chrome,97.0.4692.99,Windows,10.0,4ea10649d1b3c5863b9e809baa721650
13,1,"""","""","""","""","""",video-button-response,9,357399,0.0-9.0,9ne4gacvg,31747,"[""video/no_line_1_0cut.mp4""]",1,no_0,video/no_line_1_0cut.mp4,2022-01-29 00:49:10,107.77.218.35,"Mozilla/5.0 (Windows NT 10.0; Win64; x64) AppleWebKit/537.36 (KHTML, like Gecko) Chrome/97.0.4692.99 Safari/537.36",WebKit,Chrome,97.0.4692.99,Windows,10.0,4ea10649d1b3c5863b9e809baa721650
13,1,"""","""","""","""","""",survey-html-form,10,370741,0.0-10.0,9ne4gacvg,13340,"""","[{""name"":""understand"",""value"":""yes""},{""name"":""problems"",""value"":""No""},{""name"":""age"",""value"":""35""},{""name"":""gender"",""value"":""male""},{""name"":""comments"",""value"":""}]",debrief,"""",2022-01-29 00:49:10,107.77.218.35,"Mozilla/5.0 (Windows NT 10.0; Win64; x64) AppleWebKit/537.36 (KHTML, like Gecko) Chrome/97.0.4692.99 Safari/537.36",WebKit,Chrome,97.0.4692.99,Windows,10.0,4ea10649d1b3c5863b9e809baa721650
13,1,"""","""","""","""","""",survey-text,11,384990,0.0-11.0,9ne4gacvg,14237,"""","{""Q0"":""9ne4gacvg""}","""","""",2022-01-29 00:49:10,107.77.218.35,"Mozilla/5.0 (Windows NT 10.0; Win64; x64) AppleWebKit/537.36 (KHTML, like Gecko) Chrome/97.0.4692.99 Safari/537.36",WebKit,Chrome,97.0.4692.99,Windows,10.0,4ea10649d1b3c5863b9e809baa721650
14,1,true,false,[],[],[],preload,0,1398,0.0-0.0,0vl5pedak,"""","""","""","""","""",2022-01-29 00:49:15,67.180.106.232,"Mozilla/5.0 (Windows NT 10.0; Win64; x64) AppleWebKit/537.36 (KHTML, like Gecko) Chrome/97.0.4692.99 Safari/537.36",WebKit,Chrome,97.0.4692.99,Windows,10.0,4ea10649d1b3c5863b9e809baa721650
14,1,"""","""","""","""","""",html-keyboard-response,1,2794,0.0-1.0,0vl5pedak,1391,"<p style=""text-align:center;width:700px;""> Welcome to the experiment! This study takes most people around 10 minutes to complete. Please complete it in one sitting.</p>", ,"""","""",2022-01-29 00:49:15,67.180.106.232,"Mozilla/5.0 (Windows NT 10.0; Win64; x64) AppleWebKit/537.36 (KHTML, like Gecko) Chrome/97.0.4692.99 Safari/537.36",WebKit,Chrome,97.0.4692.99,Windows,10.0,4ea10649d1b3c5863b9e809baa721650
14,1,"""","""","""","""","""",html-keyboard-response,2,4481,0.0-2.0,0vl5pedak,1686,"<p style = ""font-size:16px;"">MIT Computational Cognitive Science Lab</p><h4>Press the 'y' key to consent.</h4><div style = ""background-color:#f2f2f2;""><h3>Informed Consent Form</h3><div style=""text-align:left;width:700px;""><p style = ""font-size:16px;"">In this HIT, you will be asked to read a set of instructions that describe a particular scenario, and you will then be asked to perform a simple task relating to that scenario. There will also be comprehension and attention checks. Participants who do not answer these checks correctly cannot be approved. In order to get credit for this HIT, you must read all the questions fully and answer honestly. You may only complete this HIT once. If you complete this HIT multiple times, you will be rejected.</p><p style = ""font-size:16px;"">This HIT is part of a MIT scientific research project. Your decision to complete this HIT is voluntary. There is no way for us to identify you. The only information we will have, in addition to your responses, is the time at which you completed the survey. The results of the research may be presented at scientific meetings or published in scientific journals. Pressing the ""Y"" key indicates that you are at least 18 years of age, and agree to complete this HIT voluntarily. Press the ""Y"" key to confirm your agreement and continue.</p></div>",y,"""","""",2022-01-29 00:49:15,67.180.106.232,"Mozilla/5.0 (Windows NT 10.0; Win64; x64) AppleWebKit/537.36 (KHTML, like Gecko) Chrome/97.0.4692.99 Safari/537.36",WebKit,Chrome,97.0.4692.99,Windows,10.0,4ea10649d1b3c5863b9e809baa721650
14,1,"""","""","""","""","""",survey-text,3,16772,0.0-3.0,0vl5pedak,12282,"""","{""instructions1"":""bring water from the source to the wooden buckets""}",instructions,"""",2022-01-29 00:49:15,67.180.106.232,"Mozilla/5.0 (Windows NT 10.0; Win64; x64) AppleWebKit/537.36 (KHTML, like Gecko) Chrome/97.0.4692.99 Safari/537.36",WebKit,Chrome,97.0.4692.99,Windows,10.0,4ea10649d1b3c5863b9e809baa721650
14,1,"""","""","""","""","""",survey-text,4,34139,0.0-4.0,0vl5pedak,17349,"""","{""instructions2"":""after  ppl have carried water to the storage""}",instructions,"""",2022-01-29 00:49:15,67.180.106.232,"Mozilla/5.0 (Windows NT 10.0; Win64; x64) AppleWebKit/537.36 (KHTML, like Gecko) Chrome/97.0.4692.99 Safari/537.36",WebKit,Chrome,97.0.4692.99,Windows,10.0,4ea10649d1b3c5863b9e809baa721650
14,1,"""","""","""","""","""",survey-text,5,42316,0.0-5.0,0vl5pedak,8167,"""","{""instructions3"":""one""}",instructions,"""",2022-01-29 00:49:15,67.180.106.232,"Mozilla/5.0 (Windows NT 10.0; Win64; x64) AppleWebKit/537.36 (KHTML, like Gecko) Chrome/97.0.4692.99 Safari/537.36",WebKit,Chrome,97.0.4692.99,Windows,10.0,4ea10649d1b3c5863b9e809baa721650
14,1,"""","""","""","""","""",video-button-response,6,57797,0.0-6.0,0vl5pedak,15475,"[""video/yes_line_7_1cut.mp4""]",1,yes_1,video/yes_line_7_1cut.mp4,2022-01-29 00:49:15,67.180.106.232,"Mozilla/5.0 (Windows NT 10.0; Win64; x64) AppleWebKit/537.36 (KHTML, like Gecko) Chrome/97.0.4692.99 Safari/537.36",WebKit,Chrome,97.0.4692.99,Windows,10.0,4ea10649d1b3c5863b9e809baa721650
14,1,"""","""","""","""","""",video-button-response,7,144608,0.0-7.0,0vl5pedak,86807,"[""video/yes_line_7_0cut.mp4""]",1,yes_0,video/yes_line_7_0cut.mp4,2022-01-29 00:49:15,67.180.106.232,"Mozilla/5.0 (Windows NT 10.0; Win64; x64) AppleWebKit/537.36 (KHTML, like Gecko) Chrome/97.0.4692.99 Safari/537.36",WebKit,Chrome,97.0.4692.99,Windows,10.0,4ea10649d1b3c5863b9e809baa721650
14,1,"""","""","""","""","""",video-button-response,8,157593,0.0-8.0,0vl5pedak,12979,"[""video/no_line_1_0cut.mp4""]",1,no_0,video/no_line_1_0cut.mp4,2022-01-29 00:49:15,67.180.106.232,"Mozilla/5.0 (Windows NT 10.0; Win64; x64) AppleWebKit/537.36 (KHTML, like Gecko) Chrome/97.0.4692.99 Safari/537.36",WebKit,Chrome,97.0.4692.99,Windows,10.0,4ea10649d1b3c5863b9e809baa721650
14,1,"""","""","""","""","""",video-button-response,9,190860,0.0-9.0,0vl5pedak,33260,"[""video/no_line_1_1cut.mp4""]",1,no_1,video/no_line_1_1cut.mp4,2022-01-29 00:49:15,67.180.106.232,"Mozilla/5.0 (Windows NT 10.0; Win64; x64) AppleWebKit/537.36 (KHTML, like Gecko) Chrome/97.0.4692.99 Safari/537.36",WebKit,Chrome,97.0.4692.99,Windows,10.0,4ea10649d1b3c5863b9e809baa721650
14,1,"""","""","""","""","""",survey-html-form,10,198574,0.0-10.0,0vl5pedak,7710,"""","[{""name"":""understand"",""value"":""yes""},{""name"":""problems"",""value"":""nnone""},{""name"":""age"",""value"":""42""},{""name"":""gender"",""value"":""male""},{""name"":""comments"",""value"":""}]",debrief,"""",2022-01-29 00:49:15,67.180.106.232,"Mozilla/5.0 (Windows NT 10.0; Win64; x64) AppleWebKit/537.36 (KHTML, like Gecko) Chrome/97.0.4692.99 Safari/537.36",WebKit,Chrome,97.0.4692.99,Windows,10.0,4ea10649d1b3c5863b9e809baa721650
14,1,"""","""","""","""","""",survey-text,11,209828,0.0-11.0,0vl5pedak,11239,"""","{""Q0"":""0vl5pedak ""}","""","""",2022-01-29 00:49:15,67.180.106.232,"Mozilla/5.0 (Windows NT 10.0; Win64; x64) AppleWebKit/537.36 (KHTML, like Gecko) Chrome/97.0.4692.99 Safari/537.36",WebKit,Chrome,97.0.4692.99,Windows,10.0,4ea10649d1b3c5863b9e809baa721650
15,1,true,false,[],[],[],preload,0,443,0.0-0.0,elmkphfg6,"""","""","""","""","""",2022-01-29 00:49:18,24.252.90.117,"Mozilla/5.0 (Macintosh; Intel Mac OS X 10_15_7) AppleWebKit/537.36 (KHTML, like Gecko) Chrome/97.0.4692.99 Safari/537.36",Macintosh,Chrome,97.0.4692.99,OS X,10_15_7,4ea10649d1b3c5863b9e809baa721650
15,1,"""","""","""","""","""",html-keyboard-response,1,2134,0.0-1.0,elmkphfg6,1689,"<p style=""text-align:center;width:700px;""> Welcome to the experiment! This study takes most people around 10 minutes to complete. Please complete it in one sitting.</p>", ,"""","""",2022-01-29 00:49:18,24.252.90.117,"Mozilla/5.0 (Macintosh; Intel Mac OS X 10_15_7) AppleWebKit/537.36 (KHTML, like Gecko) Chrome/97.0.4692.99 Safari/537.36",Macintosh,Chrome,97.0.4692.99,OS X,10_15_7,4ea10649d1b3c5863b9e809baa721650
15,1,"""","""","""","""","""",html-keyboard-response,2,4022,0.0-2.0,elmkphfg6,1887,"<p style = ""font-size:16px;"">MIT Computational Cognitive Science Lab</p><h4>Press the 'y' key to consent.</h4><div style = ""background-color:#f2f2f2;""><h3>Informed Consent Form</h3><div style=""text-align:left;width:700px;""><p style = ""font-size:16px;"">In this HIT, you will be asked to read a set of instructions that describe a particular scenario, and you will then be asked to perform a simple task relating to that scenario. There will also be comprehension and attention checks. Participants who do not answer these checks correctly cannot be approved. In order to get credit for this HIT, you must read all the questions fully and answer honestly. You may only complete this HIT once. If you complete this HIT multiple times, you will be rejected.</p><p style = ""font-size:16px;"">This HIT is part of a MIT scientific research project. Your decision to complete this HIT is voluntary. There is no way for us to identify you. The only information we will have, in addition to your responses, is the time at which you completed the survey. The results of the research may be presented at scientific meetings or published in scientific journals. Pressing the ""Y"" key indicates that you are at least 18 years of age, and agree to complete this HIT voluntarily. Press the ""Y"" key to confirm your agreement and continue.</p></div>",y,"""","""",2022-01-29 00:49:18,24.252.90.117,"Mozilla/5.0 (Macintosh; Intel Mac OS X 10_15_7) AppleWebKit/537.36 (KHTML, like Gecko) Chrome/97.0.4692.99 Safari/537.36",Macintosh,Chrome,97.0.4692.99,OS X,10_15_7,4ea10649d1b3c5863b9e809baa721650
15,1,"""","""","""","""","""",survey-text,3,92064,0.0-3.0,elmkphfg6,88035,"""","{""instructions1"":""Collect water faster to get more points and win the game ""}",instructions,"""",2022-01-29 00:49:18,24.252.90.117,"Mozilla/5.0 (Macintosh; Intel Mac OS X 10_15_7) AppleWebKit/537.36 (KHTML, like Gecko) Chrome/97.0.4692.99 Safari/537.36",Macintosh,Chrome,97.0.4692.99,OS X,10_15_7,4ea10649d1b3c5863b9e809baa721650
15,1,"""","""","""","""","""",survey-text,4,173942,0.0-4.0,elmkphfg6,81881,"""","{""instructions2"":""When all 8 people collect water and store it in a wooden storage bucket. ""}",instructions,"""",2022-01-29 00:49:18,24.252.90.117,"Mozilla/5.0 (Macintosh; Intel Mac OS X 10_15_7) AppleWebKit/537.36 (KHTML, like Gecko) Chrome/97.0.4692.99 Safari/537.36",Macintosh,Chrome,97.0.4692.99,OS X,10_15_7,4ea10649d1b3c5863b9e809baa721650
15,1,"""","""","""","""","""",survey-text,5,254783,0.0-5.0,elmkphfg6,80868,"""","{""instructions3"":""One person""}",instructions,"""",2022-01-29 00:49:18,24.252.90.117,"Mozilla/5.0 (Macintosh; Intel Mac OS X 10_15_7) AppleWebKit/537.36 (KHTML, like Gecko) Chrome/97.0.4692.99 Safari/537.36",Macintosh,Chrome,97.0.4692.99,OS X,10_15_7,4ea10649d1b3c5863b9e809baa721650
15,1,"""","""","""","""","""",video-button-response,6,328331,0.0-6.0,elmkphfg6,73539,"[""video/no_line_1_1cut.mp4""]",0,no_1,video/no_line_1_1cut.mp4,2022-01-29 00:49:18,24.252.90.117,"Mozilla/5.0 (Macintosh; Intel Mac OS X 10_15_7) AppleWebKit/537.36 (KHTML, like Gecko) Chrome/97.0.4692.99 Safari/537.36",Macintosh,Chrome,97.0.4692.99,OS X,10_15_7,4ea10649d1b3c5863b9e809baa721650
15,1,"""","""","""","""","""",video-button-response,7,360133,0.0-7.0,elmkphfg6,31793,"[""video/no_line_1_0cut.mp4""]",1,no_0,video/no_line_1_0cut.mp4,2022-01-29 00:49:18,24.252.90.117,"Mozilla/5.0 (Macintosh; Intel Mac OS X 10_15_7) AppleWebKit/537.36 (KHTML, like Gecko) Chrome/97.0.4692.99 Safari/537.36",Macintosh,Chrome,97.0.4692.99,OS X,10_15_7,4ea10649d1b3c5863b9e809baa721650
15,1,"""","""","""","""","""",video-button-response,8,391621,0.0-8.0,elmkphfg6,31477,"[""video/yes_line_7_1cut.mp4""]",0,yes_1,video/yes_line_7_1cut.mp4,2022-01-29 00:49:18,24.252.90.117,"Mozilla/5.0 (Macintosh; Intel Mac OS X 10_15_7) AppleWebKit/537.36 (KHTML, like Gecko) Chrome/97.0.4692.99 Safari/537.36",Macintosh,Chrome,97.0.4692.99,OS X,10_15_7,4ea10649d1b3c5863b9e809baa721650
15,1,"""","""","""","""","""",video-button-response,9,443657,0.0-9.0,elmkphfg6,52028,"[""video/yes_line_7_0cut.mp4""]",1,yes_0,video/yes_line_7_0cut.mp4,2022-01-29 00:49:18,24.252.90.117,"Mozilla/5.0 (Macintosh; Intel Mac OS X 10_15_7) AppleWebKit/537.36 (KHTML, like Gecko) Chrome/97.0.4692.99 Safari/537.36",Macintosh,Chrome,97.0.4692.99,OS X,10_15_7,4ea10649d1b3c5863b9e809baa721650
15,1,"""","""","""","""","""",survey-html-form,10,465435,0.0-10.0,elmkphfg6,21768,"""","[{""name"":""understand"",""value"":""yes""},{""name"":""problems"",""value"":""No problems. ""},{""name"":""age"",""value"":""53""},{""name"":""gender"",""value"":""female""},{""name"":""comments"",""value"":""No. ""}]",debrief,"""",2022-01-29 00:49:18,24.252.90.117,"Mozilla/5.0 (Macintosh; Intel Mac OS X 10_15_7) AppleWebKit/537.36 (KHTML, like Gecko) Chrome/97.0.4692.99 Safari/537.36",Macintosh,Chrome,97.0.4692.99,OS X,10_15_7,4ea10649d1b3c5863b9e809baa721650
15,1,"""","""","""","""","""",survey-text,11,481598,0.0-11.0,elmkphfg6,16152,"""","{""Q0"":""elmkphfg6 ""}","""","""",2022-01-29 00:49:18,24.252.90.117,"Mozilla/5.0 (Macintosh; Intel Mac OS X 10_15_7) AppleWebKit/537.36 (KHTML, like Gecko) Chrome/97.0.4692.99 Safari/537.36",Macintosh,Chrome,97.0.4692.99,OS X,10_15_7,4ea10649d1b3c5863b9e809baa721650
17,1,true,false,[],[],[],preload,0,2847,0.0-0.0,e7327jsqs,"""","""","""","""","""",2022-01-29 00:50:31,89.46.114.203,"Mozilla/5.0 (Windows NT 10.0; Win64; x64) AppleWebKit/537.36 (KHTML, like Gecko) Chrome/97.0.4692.99 Safari/537.36",WebKit,Chrome,97.0.4692.99,Windows,10.0,4ea10649d1b3c5863b9e809baa721650
17,1,"""","""","""","""","""",html-keyboard-response,1,5827,0.0-1.0,e7327jsqs,2964,"<p style=""text-align:center;width:700px;""> Welcome to the experiment! This study takes most people around 10 minutes to complete. Please complete it in one sitting.</p>", ,"""","""",2022-01-29 00:50:31,89.46.114.203,"Mozilla/5.0 (Windows NT 10.0; Win64; x64) AppleWebKit/537.36 (KHTML, like Gecko) Chrome/97.0.4692.99 Safari/537.36",WebKit,Chrome,97.0.4692.99,Windows,10.0,4ea10649d1b3c5863b9e809baa721650
17,1,"""","""","""","""","""",html-keyboard-response,2,9097,0.0-2.0,e7327jsqs,3268,"<p style = ""font-size:16px;"">MIT Computational Cognitive Science Lab</p><h4>Press the 'y' key to consent.</h4><div style = ""background-color:#f2f2f2;""><h3>Informed Consent Form</h3><div style=""text-align:left;width:700px;""><p style = ""font-size:16px;"">In this HIT, you will be asked to read a set of instructions that describe a particular scenario, and you will then be asked to perform a simple task relating to that scenario. There will also be comprehension and attention checks. Participants who do not answer these checks correctly cannot be approved. In order to get credit for this HIT, you must read all the questions fully and answer honestly. You may only complete this HIT once. If you complete this HIT multiple times, you will be rejected.</p><p style = ""font-size:16px;"">This HIT is part of a MIT scientific research project. Your decision to complete this HIT is voluntary. There is no way for us to identify you. The only information we will have, in addition to your responses, is the time at which you completed the survey. The results of the research may be presented at scientific meetings or published in scientific journals. Pressing the ""Y"" key indicates that you are at least 18 years of age, and agree to complete this HIT voluntarily. Press the ""Y"" key to confirm your agreement and continue.</p></div>",y,"""","""",2022-01-29 00:50:31,89.46.114.203,"Mozilla/5.0 (Windows NT 10.0; Win64; x64) AppleWebKit/537.36 (KHTML, like Gecko) Chrome/97.0.4692.99 Safari/537.36",WebKit,Chrome,97.0.4692.99,Windows,10.0,4ea10649d1b3c5863b9e809baa721650
17,1,"""","""","""","""","""",survey-text,3,65248,0.0-3.0,e7327jsqs,56126,"""","{""instructions1"":""collect water fast so they can collect more points""}",instructions,"""",2022-01-29 00:50:31,89.46.114.203,"Mozilla/5.0 (Windows NT 10.0; Win64; x64) AppleWebKit/537.36 (KHTML, like Gecko) Chrome/97.0.4692.99 Safari/537.36",WebKit,Chrome,97.0.4692.99,Windows,10.0,4ea10649d1b3c5863b9e809baa721650
17,1,"""","""","""","""","""",survey-text,4,132288,0.0-4.0,e7327jsqs,67001,"""","{""instructions2"":""When all 8 people have collected water and store it in a wooden storage bucket.""}",instructions,"""",2022-01-29 00:50:31,89.46.114.203,"Mozilla/5.0 (Windows NT 10.0; Win64; x64) AppleWebKit/537.36 (KHTML, like Gecko) Chrome/97.0.4692.99 Safari/537.36",WebKit,Chrome,97.0.4692.99,Windows,10.0,4ea10649d1b3c5863b9e809baa721650
17,1,"""","""","""","""","""",survey-text,5,231716,0.0-5.0,e7327jsqs,99341,"""","{""instructions3"":""The specific person we are shown an image of""}",instructions,"""",2022-01-29 00:50:31,89.46.114.203,"Mozilla/5.0 (Windows NT 10.0; Win64; x64) AppleWebKit/537.36 (KHTML, like Gecko) Chrome/97.0.4692.99 Safari/537.36",WebKit,Chrome,97.0.4692.99,Windows,10.0,4ea10649d1b3c5863b9e809baa721650
17,1,"""","""","""","""","""",video-button-response,6,268540,0.0-6.0,e7327jsqs,36802,"[""video/yes_line_7_1cut.mp4""]",1,yes_1,video/yes_line_7_1cut.mp4,2022-01-29 00:50:31,89.46.114.203,"Mozilla/5.0 (Windows NT 10.0; Win64; x64) AppleWebKit/537.36 (KHTML, like Gecko) Chrome/97.0.4692.99 Safari/537.36",WebKit,Chrome,97.0.4692.99,Windows,10.0,4ea10649d1b3c5863b9e809baa721650
17,1,"""","""","""","""","""",video-button-response,7,300018,0.0-7.0,e7327jsqs,31461,"[""video/no_line_1_0cut.mp4""]",1,no_0,video/no_line_1_0cut.mp4,2022-01-29 00:50:31,89.46.114.203,"Mozilla/5.0 (Windows NT 10.0; Win64; x64) AppleWebKit/537.36 (KHTML, like Gecko) Chrome/97.0.4692.99 Safari/537.36",WebKit,Chrome,97.0.4692.99,Windows,10.0,4ea10649d1b3c5863b9e809baa721650
17,1,"""","""","""","""","""",video-button-response,8,336387,0.0-8.0,e7327jsqs,36364,"[""video/no_line_1_1cut.mp4""]",0,no_1,video/no_line_1_1cut.mp4,2022-01-29 00:50:31,89.46.114.203,"Mozilla/5.0 (Windows NT 10.0; Win64; x64) AppleWebKit/537.36 (KHTML, like Gecko) Chrome/97.0.4692.99 Safari/537.36",WebKit,Chrome,97.0.4692.99,Windows,10.0,4ea10649d1b3c5863b9e809baa721650
17,1,"""","""","""","""","""",video-button-response,9,366732,0.0-9.0,e7327jsqs,30326,"[""video/yes_line_7_0cut.mp4""]",1,yes_0,video/yes_line_7_0cut.mp4,2022-01-29 00:50:31,89.46.114.203,"Mozilla/5.0 (Windows NT 10.0; Win64; x64) AppleWebKit/537.36 (KHTML, like Gecko) Chrome/97.0.4692.99 Safari/537.36",WebKit,Chrome,97.0.4692.99,Windows,10.0,4ea10649d1b3c5863b9e809baa721650
17,1,"""","""","""","""","""",survey-html-form,10,383772,0.0-10.0,e7327jsqs,17032,"""","[{""name"":""understand"",""value"":""yes""},{""name"":""problems"",""value"":""No was all smooth""},{""name"":""age"",""value"":""39""},{""name"":""gender"",""value"":""male""},{""name"":""comments"",""value"":""}]",debrief,"""",2022-01-29 00:50:31,89.46.114.203,"Mozilla/5.0 (Windows NT 10.0; Win64; x64) AppleWebKit/537.36 (KHTML, like Gecko) Chrome/97.0.4692.99 Safari/537.36",WebKit,Chrome,97.0.4692.99,Windows,10.0,4ea10649d1b3c5863b9e809baa721650
17,1,"""","""","""","""","""",survey-text,11,394289,0.0-11.0,e7327jsqs,10472,"""","{""Q0"":""e7327jsqs""}","""","""",2022-01-29 00:50:31,89.46.114.203,"Mozilla/5.0 (Windows NT 10.0; Win64; x64) AppleWebKit/537.36 (KHTML, like Gecko) Chrome/97.0.4692.99 Safari/537.36",WebKit,Chrome,97.0.4692.99,Windows,10.0,4ea10649d1b3c5863b9e809baa721650
18,1,true,false,[],[],[],preload,0,1571,0.0-0.0,p3u7ask2o,"""","""","""","""","""",2022-01-29 00:51:58,76.220.47.127,"Mozilla/5.0 (Windows NT 10.0; Win64; x64) AppleWebKit/537.36 (KHTML, like Gecko) Chrome/97.0.4692.99 Safari/537.36",WebKit,Chrome,97.0.4692.99,Windows,10.0,4ea10649d1b3c5863b9e809baa721650
18,1,"""","""","""","""","""",html-keyboard-response,1,6334,0.0-1.0,p3u7ask2o,4750,"<p style=""text-align:center;width:700px;""> Welcome to the experiment! This study takes most people around 10 minutes to complete. Please complete it in one sitting.</p>", ,"""","""",2022-01-29 00:51:58,76.220.47.127,"Mozilla/5.0 (Windows NT 10.0; Win64; x64) AppleWebKit/537.36 (KHTML, like Gecko) Chrome/97.0.4692.99 Safari/537.36",WebKit,Chrome,97.0.4692.99,Windows,10.0,4ea10649d1b3c5863b9e809baa721650
18,1,"""","""","""","""","""",html-keyboard-response,2,9847,0.0-2.0,p3u7ask2o,3512,"<p style = ""font-size:16px;"">MIT Computational Cognitive Science Lab</p><h4>Press the 'y' key to consent.</h4><div style = ""background-color:#f2f2f2;""><h3>Informed Consent Form</h3><div style=""text-align:left;width:700px;""><p style = ""font-size:16px;"">In this HIT, you will be asked to read a set of instructions that describe a particular scenario, and you will then be asked to perform a simple task relating to that scenario. There will also be comprehension and attention checks. Participants who do not answer these checks correctly cannot be approved. In order to get credit for this HIT, you must read all the questions fully and answer honestly. You may only complete this HIT once. If you complete this HIT multiple times, you will be rejected.</p><p style = ""font-size:16px;"">This HIT is part of a MIT scientific research project. Your decision to complete this HIT is voluntary. There is no way for us to identify you. The only information we will have, in addition to your responses, is the time at which you completed the survey. The results of the research may be presented at scientific meetings or published in scientific journals. Pressing the ""Y"" key indicates that you are at least 18 years of age, and agree to complete this HIT voluntarily. Press the ""Y"" key to confirm your agreement and continue.</p></div>",y,"""","""",2022-01-29 00:51:58,76.220.47.127,"Mozilla/5.0 (Windows NT 10.0; Win64; x64) AppleWebKit/537.36 (KHTML, like Gecko) Chrome/97.0.4692.99 Safari/537.36",WebKit,Chrome,97.0.4692.99,Windows,10.0,4ea10649d1b3c5863b9e809baa721650
18,1,"""","""","""","""","""",survey-text,3,53302,0.0-3.0,p3u7ask2o,43448,"""","{""instructions1"":""collect a bucket of water as fast as possible""}",instructions,"""",2022-01-29 00:51:58,76.220.47.127,"Mozilla/5.0 (Windows NT 10.0; Win64; x64) AppleWebKit/537.36 (KHTML, like Gecko) Chrome/97.0.4692.99 Safari/537.36",WebKit,Chrome,97.0.4692.99,Windows,10.0,4ea10649d1b3c5863b9e809baa721650
18,1,"""","""","""","""","""",survey-text,4,112209,0.0-4.0,p3u7ask2o,58899,"""","{""instructions2"":""when all 8 people collect water and put it in the bucket""}",instructions,"""",2022-01-29 00:51:58,76.220.47.127,"Mozilla/5.0 (Windows NT 10.0; Win64; x64) AppleWebKit/537.36 (KHTML, like Gecko) Chrome/97.0.4692.99 Safari/537.36",WebKit,Chrome,97.0.4692.99,Windows,10.0,4ea10649d1b3c5863b9e809baa721650
18,1,"""","""","""","""","""",survey-text,5,144856,0.0-5.0,p3u7ask2o,32644,"""","{""instructions3"":""1""}",instructions,"""",2022-01-29 00:51:58,76.220.47.127,"Mozilla/5.0 (Windows NT 10.0; Win64; x64) AppleWebKit/537.36 (KHTML, like Gecko) Chrome/97.0.4692.99 Safari/537.36",WebKit,Chrome,97.0.4692.99,Windows,10.0,4ea10649d1b3c5863b9e809baa721650
18,1,"""","""","""","""","""",video-button-response,6,175717,0.0-6.0,p3u7ask2o,30858,"[""video/yes_line_7_0cut.mp4""]",1,yes_0,video/yes_line_7_0cut.mp4,2022-01-29 00:51:58,76.220.47.127,"Mozilla/5.0 (Windows NT 10.0; Win64; x64) AppleWebKit/537.36 (KHTML, like Gecko) Chrome/97.0.4692.99 Safari/537.36",WebKit,Chrome,97.0.4692.99,Windows,10.0,4ea10649d1b3c5863b9e809baa721650
18,1,"""","""","""","""","""",video-button-response,7,206572,0.0-7.0,p3u7ask2o,30851,"[""video/no_line_1_0cut.mp4""]",1,no_0,video/no_line_1_0cut.mp4,2022-01-29 00:51:58,76.220.47.127,"Mozilla/5.0 (Windows NT 10.0; Win64; x64) AppleWebKit/537.36 (KHTML, like Gecko) Chrome/97.0.4692.99 Safari/537.36",WebKit,Chrome,97.0.4692.99,Windows,10.0,4ea10649d1b3c5863b9e809baa721650
18,1,"""","""","""","""","""",video-button-response,8,236746,0.0-8.0,p3u7ask2o,30172,"[""video/no_line_1_1cut.mp4""]",1,no_1,video/no_line_1_1cut.mp4,2022-01-29 00:51:58,76.220.47.127,"Mozilla/5.0 (Windows NT 10.0; Win64; x64) AppleWebKit/537.36 (KHTML, like Gecko) Chrome/97.0.4692.99 Safari/537.36",WebKit,Chrome,97.0.4692.99,Windows,10.0,4ea10649d1b3c5863b9e809baa721650
18,1,"""","""","""","""","""",video-button-response,9,266610,0.0-9.0,p3u7ask2o,29862,"[""video/yes_line_7_1cut.mp4""]",0,yes_1,video/yes_line_7_1cut.mp4,2022-01-29 00:51:58,76.220.47.127,"Mozilla/5.0 (Windows NT 10.0; Win64; x64) AppleWebKit/537.36 (KHTML, like Gecko) Chrome/97.0.4692.99 Safari/537.36",WebKit,Chrome,97.0.4692.99,Windows,10.0,4ea10649d1b3c5863b9e809baa721650
18,1,"""","""","""","""","""",survey-html-form,10,273818,0.0-10.0,p3u7ask2o,7206,"""","[{""name"":""understand"",""value"":""yes""},{""name"":""problems"",""value"":""No""},{""name"":""age"",""value"":""30""},{""name"":""gender"",""value"":""female""},{""name"":""comments"",""value"":""}]",debrief,"""",2022-01-29 00:51:58,76.220.47.127,"Mozilla/5.0 (Windows NT 10.0; Win64; x64) AppleWebKit/537.36 (KHTML, like Gecko) Chrome/97.0.4692.99 Safari/537.36",WebKit,Chrome,97.0.4692.99,Windows,10.0,4ea10649d1b3c5863b9e809baa721650
18,1,"""","""","""","""","""",survey-text,11,278785,0.0-11.0,p3u7ask2o,4958,"""","{""Q0"":""p3u7ask2o""}","""","""",2022-01-29 00:51:58,76.220.47.127,"Mozilla/5.0 (Windows NT 10.0; Win64; x64) AppleWebKit/537.36 (KHTML, like Gecko) Chrome/97.0.4692.99 Safari/537.36",WebKit,Chrome,97.0.4692.99,Windows,10.0,4ea10649d1b3c5863b9e809baa721650
25,1,true,false,[],[],[],preload,0,1203,0.0-0.0,1wefmav9f,"""","""","""","""","""",2022-01-29 00:57:55,73.181.67.85,"Mozilla/5.0 (Windows NT 10.0; Win64; x64) AppleWebKit/537.36 (KHTML, like Gecko) Chrome/97.0.4692.99 Safari/537.36",WebKit,Chrome,97.0.4692.99,Windows,10.0,4ea10649d1b3c5863b9e809baa721650
25,1,"""","""","""","""","""",html-keyboard-response,1,10193,0.0-1.0,1wefmav9f,8971,"<p style=""text-align:center;width:700px;""> Welcome to the experiment! This study takes most people around 10 minutes to complete. Please complete it in one sitting.</p>", ,"""","""",2022-01-29 00:57:55,73.181.67.85,"Mozilla/5.0 (Windows NT 10.0; Win64; x64) AppleWebKit/537.36 (KHTML, like Gecko) Chrome/97.0.4692.99 Safari/537.36",WebKit,Chrome,97.0.4692.99,Windows,10.0,4ea10649d1b3c5863b9e809baa721650
25,1,"""","""","""","""","""",html-keyboard-response,2,13191,0.0-2.0,1wefmav9f,2997,"<p style = ""font-size:16px;"">MIT Computational Cognitive Science Lab</p><h4>Press the 'y' key to consent.</h4><div style = ""background-color:#f2f2f2;""><h3>Informed Consent Form</h3><div style=""text-align:left;width:700px;""><p style = ""font-size:16px;"">In this HIT, you will be asked to read a set of instructions that describe a particular scenario, and you will then be asked to perform a simple task relating to that scenario. There will also be comprehension and attention checks. Participants who do not answer these checks correctly cannot be approved. In order to get credit for this HIT, you must read all the questions fully and answer honestly. You may only complete this HIT once. If you complete this HIT multiple times, you will be rejected.</p><p style = ""font-size:16px;"">This HIT is part of a MIT scientific research project. Your decision to complete this HIT is voluntary. There is no way for us to identify you. The only information we will have, in addition to your responses, is the time at which you completed the survey. The results of the research may be presented at scientific meetings or published in scientific journals. Pressing the ""Y"" key indicates that you are at least 18 years of age, and agree to complete this HIT voluntarily. Press the ""Y"" key to confirm your agreement and continue.</p></div>",y,"""","""",2022-01-29 00:57:55,73.181.67.85,"Mozilla/5.0 (Windows NT 10.0; Win64; x64) AppleWebKit/537.36 (KHTML, like Gecko) Chrome/97.0.4692.99 Safari/537.36",WebKit,Chrome,97.0.4692.99,Windows,10.0,4ea10649d1b3c5863b9e809baa721650
25,1,"""","""","""","""","""",survey-text,3,812700,0.0-3.0,1wefmav9f,799493,"""","{""instructions1"":""To collect a bucket of water""}",instructions,"""",2022-01-29 00:57:55,73.181.67.85,"Mozilla/5.0 (Windows NT 10.0; Win64; x64) AppleWebKit/537.36 (KHTML, like Gecko) Chrome/97.0.4692.99 Safari/537.36",WebKit,Chrome,97.0.4692.99,Windows,10.0,4ea10649d1b3c5863b9e809baa721650
25,1,"""","""","""","""","""",survey-text,4,985132,0.0-4.0,1wefmav9f,172418,"""","{""instructions2"":""When all 8 people collect water and store it in a wooden storage bucket""}",instructions,"""",2022-01-29 00:57:55,73.181.67.85,"Mozilla/5.0 (Windows NT 10.0; Win64; x64) AppleWebKit/537.36 (KHTML, like Gecko) Chrome/97.0.4692.99 Safari/537.36",WebKit,Chrome,97.0.4692.99,Windows,10.0,4ea10649d1b3c5863b9e809baa721650
25,1,"""","""","""","""","""",survey-text,5,1010900,0.0-5.0,1wefmav9f,25760,"""","{""instructions3"":""1""}",instructions,"""",2022-01-29 00:57:55,73.181.67.85,"Mozilla/5.0 (Windows NT 10.0; Win64; x64) AppleWebKit/537.36 (KHTML, like Gecko) Chrome/97.0.4692.99 Safari/537.36",WebKit,Chrome,97.0.4692.99,Windows,10.0,4ea10649d1b3c5863b9e809baa721650
25,1,"""","""","""","""","""",video-button-response,6,1073918,0.0-6.0,1wefmav9f,63009,"[""video/yes_line_7_1cut.mp4""]",0,yes_1,video/yes_line_7_1cut.mp4,2022-01-29 00:57:55,73.181.67.85,"Mozilla/5.0 (Windows NT 10.0; Win64; x64) AppleWebKit/537.36 (KHTML, like Gecko) Chrome/97.0.4692.99 Safari/537.36",WebKit,Chrome,97.0.4692.99,Windows,10.0,4ea10649d1b3c5863b9e809baa721650
25,1,"""","""","""","""","""",video-button-response,7,1450227,0.0-7.0,1wefmav9f,376302,"[""video/no_line_1_0cut.mp4""]",1,no_0,video/no_line_1_0cut.mp4,2022-01-29 00:57:55,73.181.67.85,"Mozilla/5.0 (Windows NT 10.0; Win64; x64) AppleWebKit/537.36 (KHTML, like Gecko) Chrome/97.0.4692.99 Safari/537.36",WebKit,Chrome,97.0.4692.99,Windows,10.0,4ea10649d1b3c5863b9e809baa721650
25,1,"""","""","""","""","""",video-button-response,8,1481450,0.0-8.0,1wefmav9f,31216,"[""video/yes_line_7_0cut.mp4""]",1,yes_0,video/yes_line_7_0cut.mp4,2022-01-29 00:57:55,73.181.67.85,"Mozilla/5.0 (Windows NT 10.0; Win64; x64) AppleWebKit/537.36 (KHTML, like Gecko) Chrome/97.0.4692.99 Safari/537.36",WebKit,Chrome,97.0.4692.99,Windows,10.0,4ea10649d1b3c5863b9e809baa721650
25,1,"""","""","""","""","""",video-button-response,9,1522751,0.0-9.0,1wefmav9f,41294,"[""video/no_line_1_1cut.mp4""]",0,no_1,video/no_line_1_1cut.mp4,2022-01-29 00:57:55,73.181.67.85,"Mozilla/5.0 (Windows NT 10.0; Win64; x64) AppleWebKit/537.36 (KHTML, like Gecko) Chrome/97.0.4692.99 Safari/537.36",WebKit,Chrome,97.0.4692.99,Windows,10.0,4ea10649d1b3c5863b9e809baa721650
25,1,"""","""","""","""","""",survey-html-form,10,1533516,0.0-10.0,1wefmav9f,10762,"""","[{""name"":""understand"",""value"":""yes""},{""name"":""problems"",""value"":""No problems or bugs""},{""name"":""age"",""value"":""30""},{""name"":""gender"",""value"":""female""},{""name"":""comments"",""value"":""}]",debrief,"""",2022-01-29 00:57:55,73.181.67.85,"Mozilla/5.0 (Windows NT 10.0; Win64; x64) AppleWebKit/537.36 (KHTML, like Gecko) Chrome/97.0.4692.99 Safari/537.36",WebKit,Chrome,97.0.4692.99,Windows,10.0,4ea10649d1b3c5863b9e809baa721650
25,1,"""","""","""","""","""",survey-text,11,1540967,0.0-11.0,1wefmav9f,7440,"""","{""Q0"":""1wefmav9f ""}","""","""",2022-01-29 00:57:55,73.181.67.85,"Mozilla/5.0 (Windows NT 10.0; Win64; x64) AppleWebKit/537.36 (KHTML, like Gecko) Chrome/97.0.4692.99 Safari/537.36",WebKit,Chrome,97.0.4692.99,Windows,10.0,4ea10649d1b3c5863b9e809baa721650
20,1,true,false,[],[],[],preload,0,2515,0.0-0.0,3kjlrm598,"""","""","""","""","""",2022-01-29 00:54:28,107.202.185.169,"Mozilla/5.0 (Windows NT 10.0; Win64; x64) AppleWebKit/537.36 (KHTML, like Gecko) Chrome/97.0.4692.99 Safari/537.36",WebKit,Chrome,97.0.4692.99,Windows,10.0,4ea10649d1b3c5863b9e809baa721650
20,1,"""","""","""","""","""",html-keyboard-response,1,557672,0.0-1.0,3kjlrm598,555147,"<p style=""text-align:center;width:700px;""> Welcome to the experiment! This study takes most people around 10 minutes to complete. Please complete it in one sitting.</p>", ,"""","""",2022-01-29 00:54:28,107.202.185.169,"Mozilla/5.0 (Windows NT 10.0; Win64; x64) AppleWebKit/537.36 (KHTML, like Gecko) Chrome/97.0.4692.99 Safari/537.36",WebKit,Chrome,97.0.4692.99,Windows,10.0,4ea10649d1b3c5863b9e809baa721650
20,1,"""","""","""","""","""",html-keyboard-response,2,559352,0.0-2.0,3kjlrm598,1678,"<p style = ""font-size:16px;"">MIT Computational Cognitive Science Lab</p><h4>Press the 'y' key to consent.</h4><div style = ""background-color:#f2f2f2;""><h3>Informed Consent Form</h3><div style=""text-align:left;width:700px;""><p style = ""font-size:16px;"">In this HIT, you will be asked to read a set of instructions that describe a particular scenario, and you will then be asked to perform a simple task relating to that scenario. There will also be comprehension and attention checks. Participants who do not answer these checks correctly cannot be approved. In order to get credit for this HIT, you must read all the questions fully and answer honestly. You may only complete this HIT once. If you complete this HIT multiple times, you will be rejected.</p><p style = ""font-size:16px;"">This HIT is part of a MIT scientific research project. Your decision to complete this HIT is voluntary. There is no way for us to identify you. The only information we will have, in addition to your responses, is the time at which you completed the survey. The results of the research may be presented at scientific meetings or published in scientific journals. Pressing the ""Y"" key indicates that you are at least 18 years of age, and agree to complete this HIT voluntarily. Press the ""Y"" key to confirm your agreement and continue.</p></div>",y,"""","""",2022-01-29 00:54:28,107.202.185.169,"Mozilla/5.0 (Windows NT 10.0; Win64; x64) AppleWebKit/537.36 (KHTML, like Gecko) Chrome/97.0.4692.99 Safari/537.36",WebKit,Chrome,97.0.4692.99,Windows,10.0,4ea10649d1b3c5863b9e809baa721650
20,1,"""","""","""","""","""",survey-text,3,648438,0.0-3.0,3kjlrm598,89071,"""","{""instructions1"":""To collect one bucket of water from a source and bring it back to a wooden storage bucket.""}",instructions,"""",2022-01-29 00:54:28,107.202.185.169,"Mozilla/5.0 (Windows NT 10.0; Win64; x64) AppleWebKit/537.36 (KHTML, like Gecko) Chrome/97.0.4692.99 Safari/537.36",WebKit,Chrome,97.0.4692.99,Windows,10.0,4ea10649d1b3c5863b9e809baa721650
20,1,"""","""","""","""","""",survey-text,4,714430,0.0-4.0,3kjlrm598,65968,"""","{""instructions2"":""When all 8 people collect a bucket of water and bring it back to the wooden storage.""}",instructions,"""",2022-01-29 00:54:28,107.202.185.169,"Mozilla/5.0 (Windows NT 10.0; Win64; x64) AppleWebKit/537.36 (KHTML, like Gecko) Chrome/97.0.4692.99 Safari/537.36",WebKit,Chrome,97.0.4692.99,Windows,10.0,4ea10649d1b3c5863b9e809baa721650
20,1,"""","""","""","""","""",survey-text,5,769109,0.0-5.0,3kjlrm598,54665,"""","{""instructions3"":""Only one. I will be shown the specific person to watch during each video.""}",instructions,"""",2022-01-29 00:54:28,107.202.185.169,"Mozilla/5.0 (Windows NT 10.0; Win64; x64) AppleWebKit/537.36 (KHTML, like Gecko) Chrome/97.0.4692.99 Safari/537.36",WebKit,Chrome,97.0.4692.99,Windows,10.0,4ea10649d1b3c5863b9e809baa721650
20,1,"""","""","""","""","""",video-button-response,6,806872,0.0-6.0,3kjlrm598,37753,"[""video/yes_line_7_0cut.mp4""]",1,yes_0,video/yes_line_7_0cut.mp4,2022-01-29 00:54:28,107.202.185.169,"Mozilla/5.0 (Windows NT 10.0; Win64; x64) AppleWebKit/537.36 (KHTML, like Gecko) Chrome/97.0.4692.99 Safari/537.36",WebKit,Chrome,97.0.4692.99,Windows,10.0,4ea10649d1b3c5863b9e809baa721650
20,1,"""","""","""","""","""",video-button-response,7,838324,0.0-7.0,3kjlrm598,31438,"[""video/no_line_1_0cut.mp4""]",1,no_0,video/no_line_1_0cut.mp4,2022-01-29 00:54:28,107.202.185.169,"Mozilla/5.0 (Windows NT 10.0; Win64; x64) AppleWebKit/537.36 (KHTML, like Gecko) Chrome/97.0.4692.99 Safari/537.36",WebKit,Chrome,97.0.4692.99,Windows,10.0,4ea10649d1b3c5863b9e809baa721650
20,1,"""","""","""","""","""",video-button-response,8,870854,0.0-8.0,3kjlrm598,32527,"[""video/no_line_1_1cut.mp4""]",1,no_1,video/no_line_1_1cut.mp4,2022-01-29 00:54:28,107.202.185.169,"Mozilla/5.0 (Windows NT 10.0; Win64; x64) AppleWebKit/537.36 (KHTML, like Gecko) Chrome/97.0.4692.99 Safari/537.36",WebKit,Chrome,97.0.4692.99,Windows,10.0,4ea10649d1b3c5863b9e809baa721650
20,1,"""","""","""","""","""",video-button-response,9,902964,0.0-9.0,3kjlrm598,32096,"[""video/yes_line_7_1cut.mp4""]",0,yes_1,video/yes_line_7_1cut.mp4,2022-01-29 00:54:28,107.202.185.169,"Mozilla/5.0 (Windows NT 10.0; Win64; x64) AppleWebKit/537.36 (KHTML, like Gecko) Chrome/97.0.4692.99 Safari/537.36",WebKit,Chrome,97.0.4692.99,Windows,10.0,4ea10649d1b3c5863b9e809baa721650
20,1,"""","""","""","""","""",survey-html-form,10,958916,0.0-10.0,3kjlrm598,55951,"""","[{""name"":""understand"",""value"":""yes""},{""name"":""problems"",""value"":""No, I did not encounter any bugs or issues.""},{""name"":""age"",""value"":""32""},{""name"":""gender"",""value"":""male""},{""name"":""comments"",""value"":""This was an interesting concept, though I did find it unacceptable when the person I was watching was unfair to other players.""}]",debrief,"""",2022-01-29 00:54:28,107.202.185.169,"Mozilla/5.0 (Windows NT 10.0; Win64; x64) AppleWebKit/537.36 (KHTML, like Gecko) Chrome/97.0.4692.99 Safari/537.36",WebKit,Chrome,97.0.4692.99,Windows,10.0,4ea10649d1b3c5863b9e809baa721650
20,1,"""","""","""","""","""",survey-text,11,1024803,0.0-11.0,3kjlrm598,65881,"""","{""Q0"":""3kjlrm598""}","""","""",2022-01-29 00:54:28,107.202.185.169,"Mozilla/5.0 (Windows NT 10.0; Win64; x64) AppleWebKit/537.36 (KHTML, like Gecko) Chrome/97.0.4692.99 Safari/537.36",WebKit,Chrome,97.0.4692.99,Windows,10.0,4ea10649d1b3c5863b9e809baa721650
19,1,true,false,[],[],[],preload,0,756,0.0-0.0,otzy2dhgj,"""","""","""","""","""",2022-01-29 00:53:40,68.99.230.222,"Mozilla/5.0 (Windows NT 10.0; Win64; x64) AppleWebKit/537.36 (KHTML, like Gecko) Chrome/97.0.4692.99 Safari/537.36",WebKit,Chrome,97.0.4692.99,Windows,10.0,4ea10649d1b3c5863b9e809baa721650
19,1,"""","""","""","""","""",html-keyboard-response,1,2358,0.0-1.0,otzy2dhgj,1600,"<p style=""text-align:center;width:700px;""> Welcome to the experiment! This study takes most people around 10 minutes to complete. Please complete it in one sitting.</p>", ,"""","""",2022-01-29 00:53:40,68.99.230.222,"Mozilla/5.0 (Windows NT 10.0; Win64; x64) AppleWebKit/537.36 (KHTML, like Gecko) Chrome/97.0.4692.99 Safari/537.36",WebKit,Chrome,97.0.4692.99,Windows,10.0,4ea10649d1b3c5863b9e809baa721650
19,1,"""","""","""","""","""",html-keyboard-response,2,3758,0.0-2.0,otzy2dhgj,1400,"<p style = ""font-size:16px;"">MIT Computational Cognitive Science Lab</p><h4>Press the 'y' key to consent.</h4><div style = ""background-color:#f2f2f2;""><h3>Informed Consent Form</h3><div style=""text-align:left;width:700px;""><p style = ""font-size:16px;"">In this HIT, you will be asked to read a set of instructions that describe a particular scenario, and you will then be asked to perform a simple task relating to that scenario. There will also be comprehension and attention checks. Participants who do not answer these checks correctly cannot be approved. In order to get credit for this HIT, you must read all the questions fully and answer honestly. You may only complete this HIT once. If you complete this HIT multiple times, you will be rejected.</p><p style = ""font-size:16px;"">This HIT is part of a MIT scientific research project. Your decision to complete this HIT is voluntary. There is no way for us to identify you. The only information we will have, in addition to your responses, is the time at which you completed the survey. The results of the research may be presented at scientific meetings or published in scientific journals. Pressing the ""Y"" key indicates that you are at least 18 years of age, and agree to complete this HIT voluntarily. Press the ""Y"" key to confirm your agreement and continue.</p></div>",y,"""","""",2022-01-29 00:53:40,68.99.230.222,"Mozilla/5.0 (Windows NT 10.0; Win64; x64) AppleWebKit/537.36 (KHTML, like Gecko) Chrome/97.0.4692.99 Safari/537.36",WebKit,Chrome,97.0.4692.99,Windows,10.0,4ea10649d1b3c5863b9e809baa721650
19,1,"""","""","""","""","""",survey-text,3,24289,0.0-3.0,otzy2dhgj,20526,"""","{""instructions1"":""collect water from a water source and bring it back to the wooden storage buckets""}",instructions,"""",2022-01-29 00:53:40,68.99.230.222,"Mozilla/5.0 (Windows NT 10.0; Win64; x64) AppleWebKit/537.36 (KHTML, like Gecko) Chrome/97.0.4692.99 Safari/537.36",WebKit,Chrome,97.0.4692.99,Windows,10.0,4ea10649d1b3c5863b9e809baa721650
19,1,"""","""","""","""","""",survey-text,4,45492,0.0-4.0,otzy2dhgj,21196,"""","{""instructions2"":""when all 8 people collect water and store it in a wooden storage bucket""}",instructions,"""",2022-01-29 00:53:40,68.99.230.222,"Mozilla/5.0 (Windows NT 10.0; Win64; x64) AppleWebKit/537.36 (KHTML, like Gecko) Chrome/97.0.4692.99 Safari/537.36",WebKit,Chrome,97.0.4692.99,Windows,10.0,4ea10649d1b3c5863b9e809baa721650
19,1,"""","""","""","""","""",survey-text,5,52854,0.0-5.0,otzy2dhgj,7360,"""","{""instructions3"":""1""}",instructions,"""",2022-01-29 00:53:40,68.99.230.222,"Mozilla/5.0 (Windows NT 10.0; Win64; x64) AppleWebKit/537.36 (KHTML, like Gecko) Chrome/97.0.4692.99 Safari/537.36",WebKit,Chrome,97.0.4692.99,Windows,10.0,4ea10649d1b3c5863b9e809baa721650
19,1,"""","""","""","""","""",video-button-response,6,82686,0.0-6.0,otzy2dhgj,29828,"[""video/no_line_1_1cut.mp4""]",1,no_1,video/no_line_1_1cut.mp4,2022-01-29 00:53:40,68.99.230.222,"Mozilla/5.0 (Windows NT 10.0; Win64; x64) AppleWebKit/537.36 (KHTML, like Gecko) Chrome/97.0.4692.99 Safari/537.36",WebKit,Chrome,97.0.4692.99,Windows,10.0,4ea10649d1b3c5863b9e809baa721650
19,1,"""","""","""","""","""",video-button-response,7,112821,0.0-7.0,otzy2dhgj,30133,"[""video/yes_line_7_0cut.mp4""]",1,yes_0,video/yes_line_7_0cut.mp4,2022-01-29 00:53:40,68.99.230.222,"Mozilla/5.0 (Windows NT 10.0; Win64; x64) AppleWebKit/537.36 (KHTML, like Gecko) Chrome/97.0.4692.99 Safari/537.36",WebKit,Chrome,97.0.4692.99,Windows,10.0,4ea10649d1b3c5863b9e809baa721650
19,1,"""","""","""","""","""",video-button-response,8,157570,0.0-8.0,otzy2dhgj,44747,"[""video/no_line_1_0cut.mp4""]",1,no_0,video/no_line_1_0cut.mp4,2022-01-29 00:53:40,68.99.230.222,"Mozilla/5.0 (Windows NT 10.0; Win64; x64) AppleWebKit/537.36 (KHTML, like Gecko) Chrome/97.0.4692.99 Safari/537.36",WebKit,Chrome,97.0.4692.99,Windows,10.0,4ea10649d1b3c5863b9e809baa721650
19,1,"""","""","""","""","""",video-button-response,9,188486,0.0-9.0,otzy2dhgj,30914,"[""video/yes_line_7_1cut.mp4""]",0,yes_1,video/yes_line_7_1cut.mp4,2022-01-29 00:53:40,68.99.230.222,"Mozilla/5.0 (Windows NT 10.0; Win64; x64) AppleWebKit/537.36 (KHTML, like Gecko) Chrome/97.0.4692.99 Safari/537.36",WebKit,Chrome,97.0.4692.99,Windows,10.0,4ea10649d1b3c5863b9e809baa721650
19,1,"""","""","""","""","""",survey-html-form,10,205044,0.0-10.0,otzy2dhgj,16557,"""","[{""name"":""understand"",""value"":""yes""},{""name"":""problems"",""value"":""no""},{""name"":""age"",""value"":""37""},{""name"":""gender"",""value"":""female""},{""name"":""comments"",""value"":""}]",debrief,"""",2022-01-29 00:53:40,68.99.230.222,"Mozilla/5.0 (Windows NT 10.0; Win64; x64) AppleWebKit/537.36 (KHTML, like Gecko) Chrome/97.0.4692.99 Safari/537.36",WebKit,Chrome,97.0.4692.99,Windows,10.0,4ea10649d1b3c5863b9e809baa721650
19,1,"""","""","""","""","""",survey-text,11,207886,0.0-11.0,otzy2dhgj,2834,"""","{""Q0"":""otzy2dhgj ""}","""","""",2022-01-29 00:53:40,68.99.230.222,"Mozilla/5.0 (Windows NT 10.0; Win64; x64) AppleWebKit/537.36 (KHTML, like Gecko) Chrome/97.0.4692.99 Safari/537.36",WebKit,Chrome,97.0.4692.99,Windows,10.0,4ea10649d1b3c5863b9e809baa721650
23,1,true,false,[],[],[],preload,0,2406,0.0-0.0,2cnut57te,"""","""","""","""","""",2022-01-29 00:57:27,174.67.203.139,"Mozilla/5.0 (Windows NT 10.0; Win64; x64) AppleWebKit/537.36 (KHTML, like Gecko) Chrome/94.0.4606.54 Safari/537.36 Edg/93.0.961.38",WebKit,Edge,93.0.961.38,Windows,10.0,4ea10649d1b3c5863b9e809baa721650
23,1,"""","""","""","""","""",html-keyboard-response,1,4483,0.0-1.0,2cnut57te,2031,"<p style=""text-align:center;width:700px;""> Welcome to the experiment! This study takes most people around 10 minutes to complete. Please complete it in one sitting.</p>", ,"""","""",2022-01-29 00:57:27,174.67.203.139,"Mozilla/5.0 (Windows NT 10.0; Win64; x64) AppleWebKit/537.36 (KHTML, like Gecko) Chrome/94.0.4606.54 Safari/537.36 Edg/93.0.961.38",WebKit,Edge,93.0.961.38,Windows,10.0,4ea10649d1b3c5863b9e809baa721650
23,1,"""","""","""","""","""",html-keyboard-response,2,5154,0.0-2.0,2cnut57te,667,"<p style = ""font-size:16px;"">MIT Computational Cognitive Science Lab</p><h4>Press the 'y' key to consent.</h4><div style = ""background-color:#f2f2f2;""><h3>Informed Consent Form</h3><div style=""text-align:left;width:700px;""><p style = ""font-size:16px;"">In this HIT, you will be asked to read a set of instructions that describe a particular scenario, and you will then be asked to perform a simple task relating to that scenario. There will also be comprehension and attention checks. Participants who do not answer these checks correctly cannot be approved. In order to get credit for this HIT, you must read all the questions fully and answer honestly. You may only complete this HIT once. If you complete this HIT multiple times, you will be rejected.</p><p style = ""font-size:16px;"">This HIT is part of a MIT scientific research project. Your decision to complete this HIT is voluntary. There is no way for us to identify you. The only information we will have, in addition to your responses, is the time at which you completed the survey. The results of the research may be presented at scientific meetings or published in scientific journals. Pressing the ""Y"" key indicates that you are at least 18 years of age, and agree to complete this HIT voluntarily. Press the ""Y"" key to confirm your agreement and continue.</p></div>",y,"""","""",2022-01-29 00:57:27,174.67.203.139,"Mozilla/5.0 (Windows NT 10.0; Win64; x64) AppleWebKit/537.36 (KHTML, like Gecko) Chrome/94.0.4606.54 Safari/537.36 Edg/93.0.961.38",WebKit,Edge,93.0.961.38,Windows,10.0,4ea10649d1b3c5863b9e809baa721650
23,1,"""","""","""","""","""",survey-text,3,12498,0.0-3.0,2cnut57te,7304,"""","{""instructions1"":""Collect water from a water source and bring it back to the wooden storage buckets.""}",instructions,"""",2022-01-29 00:57:27,174.67.203.139,"Mozilla/5.0 (Windows NT 10.0; Win64; x64) AppleWebKit/537.36 (KHTML, like Gecko) Chrome/94.0.4606.54 Safari/537.36 Edg/93.0.961.38",WebKit,Edge,93.0.961.38,Windows,10.0,4ea10649d1b3c5863b9e809baa721650
23,1,"""","""","""","""","""",survey-text,4,21952,0.0-4.0,2cnut57te,9430,"""","{""instructions2"":""When all 8 people collect water and store it in a wooden storage bucket.""}",instructions,"""",2022-01-29 00:57:27,174.67.203.139,"Mozilla/5.0 (Windows NT 10.0; Win64; x64) AppleWebKit/537.36 (KHTML, like Gecko) Chrome/94.0.4606.54 Safari/537.36 Edg/93.0.961.38",WebKit,Edge,93.0.961.38,Windows,10.0,4ea10649d1b3c5863b9e809baa721650
23,1,"""","""","""","""","""",survey-text,5,45971,0.0-5.0,2cnut57te,24010,"""","{""instructions3"":""1""}",instructions,"""",2022-01-29 00:57:27,174.67.203.139,"Mozilla/5.0 (Windows NT 10.0; Win64; x64) AppleWebKit/537.36 (KHTML, like Gecko) Chrome/94.0.4606.54 Safari/537.36 Edg/93.0.961.38",WebKit,Edge,93.0.961.38,Windows,10.0,4ea10649d1b3c5863b9e809baa721650
23,1,"""","""","""","""","""",video-button-response,6,76448,0.0-6.0,2cnut57te,30462,"[""video/no_line_1_0cut.mp4""]",1,no_0,video/no_line_1_0cut.mp4,2022-01-29 00:57:27,174.67.203.139,"Mozilla/5.0 (Windows NT 10.0; Win64; x64) AppleWebKit/537.36 (KHTML, like Gecko) Chrome/94.0.4606.54 Safari/537.36 Edg/93.0.961.38",WebKit,Edge,93.0.961.38,Windows,10.0,4ea10649d1b3c5863b9e809baa721650
23,1,"""","""","""","""","""",video-button-response,7,106723,0.0-7.0,2cnut57te,30256,"[""video/yes_line_7_0cut.mp4""]",1,yes_0,video/yes_line_7_0cut.mp4,2022-01-29 00:57:27,174.67.203.139,"Mozilla/5.0 (Windows NT 10.0; Win64; x64) AppleWebKit/537.36 (KHTML, like Gecko) Chrome/94.0.4606.54 Safari/537.36 Edg/93.0.961.38",WebKit,Edge,93.0.961.38,Windows,10.0,4ea10649d1b3c5863b9e809baa721650
23,1,"""","""","""","""","""",video-button-response,8,140108,0.0-8.0,2cnut57te,33362,"[""video/no_line_1_1cut.mp4""]",1,no_1,video/no_line_1_1cut.mp4,2022-01-29 00:57:27,174.67.203.139,"Mozilla/5.0 (Windows NT 10.0; Win64; x64) AppleWebKit/537.36 (KHTML, like Gecko) Chrome/94.0.4606.54 Safari/537.36 Edg/93.0.961.38",WebKit,Edge,93.0.961.38,Windows,10.0,4ea10649d1b3c5863b9e809baa721650
23,1,"""","""","""","""","""",video-button-response,9,188018,0.0-9.0,2cnut57te,47902,"[""video/yes_line_7_1cut.mp4""]",0,yes_1,video/yes_line_7_1cut.mp4,2022-01-29 00:57:27,174.67.203.139,"Mozilla/5.0 (Windows NT 10.0; Win64; x64) AppleWebKit/537.36 (KHTML, like Gecko) Chrome/94.0.4606.54 Safari/537.36 Edg/93.0.961.38",WebKit,Edge,93.0.961.38,Windows,10.0,4ea10649d1b3c5863b9e809baa721650
23,1,"""","""","""","""","""",survey-html-form,10,198626,0.0-10.0,2cnut57te,10602,"""","[{""name"":""understand"",""value"":""yes""},{""name"":""problems"",""value"":""none""},{""name"":""age"",""value"":""32""},{""name"":""gender"",""value"":""male""},{""name"":""comments"",""value"":""none""}]",debrief,"""",2022-01-29 00:57:27,174.67.203.139,"Mozilla/5.0 (Windows NT 10.0; Win64; x64) AppleWebKit/537.36 (KHTML, like Gecko) Chrome/94.0.4606.54 Safari/537.36 Edg/93.0.961.38",WebKit,Edge,93.0.961.38,Windows,10.0,4ea10649d1b3c5863b9e809baa721650
23,1,"""","""","""","""","""",survey-text,11,206032,0.0-11.0,2cnut57te,7399,"""","{""Q0"":""2cnut57te""}","""","""",2022-01-29 00:57:27,174.67.203.139,"Mozilla/5.0 (Windows NT 10.0; Win64; x64) AppleWebKit/537.36 (KHTML, like Gecko) Chrome/94.0.4606.54 Safari/537.36 Edg/93.0.961.38",WebKit,Edge,93.0.961.38,Windows,10.0,4ea10649d1b3c5863b9e809baa721650
2,1,true,false,[],[],[],preload,0,1880,0.0-0.0,x75h10wtk,"""","""","""","""","""",2022-01-29 00:45:55,73.230.74.77,"Mozilla/5.0 (Windows NT 10.0; Win64; x64) AppleWebKit/537.36 (KHTML, like Gecko) Chrome/97.0.4692.99 Safari/537.36",WebKit,Chrome,97.0.4692.99,Windows,10.0,4ea10649d1b3c5863b9e809baa721650
2,1,"""","""","""","""","""",html-keyboard-response,1,721693,0.0-1.0,x75h10wtk,719809,"<p style=""text-align:center;width:700px;""> Welcome to the experiment! This study takes most people around 10 minutes to complete. Please complete it in one sitting.</p>", ,"""","""",2022-01-29 00:45:55,73.230.74.77,"Mozilla/5.0 (Windows NT 10.0; Win64; x64) AppleWebKit/537.36 (KHTML, like Gecko) Chrome/97.0.4692.99 Safari/537.36",WebKit,Chrome,97.0.4692.99,Windows,10.0,4ea10649d1b3c5863b9e809baa721650
2,1,"""","""","""","""","""",html-keyboard-response,2,728955,0.0-2.0,x75h10wtk,7255,"<p style = ""font-size:16px;"">MIT Computational Cognitive Science Lab</p><h4>Press the 'y' key to consent.</h4><div style = ""background-color:#f2f2f2;""><h3>Informed Consent Form</h3><div style=""text-align:left;width:700px;""><p style = ""font-size:16px;"">In this HIT, you will be asked to read a set of instructions that describe a particular scenario, and you will then be asked to perform a simple task relating to that scenario. There will also be comprehension and attention checks. Participants who do not answer these checks correctly cannot be approved. In order to get credit for this HIT, you must read all the questions fully and answer honestly. You may only complete this HIT once. If you complete this HIT multiple times, you will be rejected.</p><p style = ""font-size:16px;"">This HIT is part of a MIT scientific research project. Your decision to complete this HIT is voluntary. There is no way for us to identify you. The only information we will have, in addition to your responses, is the time at which you completed the survey. The results of the research may be presented at scientific meetings or published in scientific journals. Pressing the ""Y"" key indicates that you are at least 18 years of age, and agree to complete this HIT voluntarily. Press the ""Y"" key to confirm your agreement and continue.</p></div>",y,"""","""",2022-01-29 00:45:55,73.230.74.77,"Mozilla/5.0 (Windows NT 10.0; Win64; x64) AppleWebKit/537.36 (KHTML, like Gecko) Chrome/97.0.4692.99 Safari/537.36",WebKit,Chrome,97.0.4692.99,Windows,10.0,4ea10649d1b3c5863b9e809baa721650
2,1,"""","""","""","""","""",survey-text,3,748259,0.0-3.0,x75h10wtk,19283,"""","{""instructions1"":""collects the bucket of water fastly""}",instructions,"""",2022-01-29 00:45:55,73.230.74.77,"Mozilla/5.0 (Windows NT 10.0; Win64; x64) AppleWebKit/537.36 (KHTML, like Gecko) Chrome/97.0.4692.99 Safari/537.36",WebKit,Chrome,97.0.4692.99,Windows,10.0,4ea10649d1b3c5863b9e809baa721650
2,1,"""","""","""","""","""",survey-text,4,772039,0.0-4.0,x75h10wtk,23768,"""","{""instructions2"":""when all 8 people collect water and store it in a wooden storage bucket.""}",instructions,"""",2022-01-29 00:45:55,73.230.74.77,"Mozilla/5.0 (Windows NT 10.0; Win64; x64) AppleWebKit/537.36 (KHTML, like Gecko) Chrome/97.0.4692.99 Safari/537.36",WebKit,Chrome,97.0.4692.99,Windows,10.0,4ea10649d1b3c5863b9e809baa721650
2,1,"""","""","""","""","""",survey-text,5,786447,0.0-5.0,x75h10wtk,14404,"""","{""instructions3"":""1""}",instructions,"""",2022-01-29 00:45:55,73.230.74.77,"Mozilla/5.0 (Windows NT 10.0; Win64; x64) AppleWebKit/537.36 (KHTML, like Gecko) Chrome/97.0.4692.99 Safari/537.36",WebKit,Chrome,97.0.4692.99,Windows,10.0,4ea10649d1b3c5863b9e809baa721650
2,1,"""","""","""","""","""",video-button-response,6,886331,0.0-6.0,x75h10wtk,99878,"[""video/no_line_1_1cut.mp4""]",1,no_1,video/no_line_1_1cut.mp4,2022-01-29 00:45:55,73.230.74.77,"Mozilla/5.0 (Windows NT 10.0; Win64; x64) AppleWebKit/537.36 (KHTML, like Gecko) Chrome/97.0.4692.99 Safari/537.36",WebKit,Chrome,97.0.4692.99,Windows,10.0,4ea10649d1b3c5863b9e809baa721650
2,1,"""","""","""","""","""",video-button-response,7,936207,0.0-7.0,x75h10wtk,49870,"[""video/yes_line_7_0cut.mp4""]",1,yes_0,video/yes_line_7_0cut.mp4,2022-01-29 00:45:55,73.230.74.77,"Mozilla/5.0 (Windows NT 10.0; Win64; x64) AppleWebKit/537.36 (KHTML, like Gecko) Chrome/97.0.4692.99 Safari/537.36",WebKit,Chrome,97.0.4692.99,Windows,10.0,4ea10649d1b3c5863b9e809baa721650
2,1,"""","""","""","""","""",video-button-response,8,967003,0.0-8.0,x75h10wtk,30793,"[""video/no_line_1_0cut.mp4""]",1,no_0,video/no_line_1_0cut.mp4,2022-01-29 00:45:55,73.230.74.77,"Mozilla/5.0 (Windows NT 10.0; Win64; x64) AppleWebKit/537.36 (KHTML, like Gecko) Chrome/97.0.4692.99 Safari/537.36",WebKit,Chrome,97.0.4692.99,Windows,10.0,4ea10649d1b3c5863b9e809baa721650
2,1,"""","""","""","""","""",video-button-response,9,999908,0.0-9.0,x75h10wtk,32900,"[""video/yes_line_7_1cut.mp4""]",0,yes_1,video/yes_line_7_1cut.mp4,2022-01-29 00:45:55,73.230.74.77,"Mozilla/5.0 (Windows NT 10.0; Win64; x64) AppleWebKit/537.36 (KHTML, like Gecko) Chrome/97.0.4692.99 Safari/537.36",WebKit,Chrome,97.0.4692.99,Windows,10.0,4ea10649d1b3c5863b9e809baa721650
2,1,"""","""","""","""","""",survey-html-form,10,1011499,0.0-10.0,x75h10wtk,11589,"""","[{""name"":""understand"",""value"":""yes""},{""name"":""problems"",""value"":""no""},{""name"":""age"",""value"":""31""},{""name"":""gender"",""value"":""female""},{""name"":""comments"",""value"":""no""}]",debrief,"""",2022-01-29 00:45:55,73.230.74.77,"Mozilla/5.0 (Windows NT 10.0; Win64; x64) AppleWebKit/537.36 (KHTML, like Gecko) Chrome/97.0.4692.99 Safari/537.36",WebKit,Chrome,97.0.4692.99,Windows,10.0,4ea10649d1b3c5863b9e809baa721650
2,1,"""","""","""","""","""",survey-text,11,1028702,0.0-11.0,x75h10wtk,17193,"""","{""Q0"":""x75h10wtk""}","""","""",2022-01-29 00:45:55,73.230.74.77,"Mozilla/5.0 (Windows NT 10.0; Win64; x64) AppleWebKit/537.36 (KHTML, like Gecko) Chrome/97.0.4692.99 Safari/537.36",WebKit,Chrome,97.0.4692.99,Windows,10.0,4ea10649d1b3c5863b9e809baa721650
21,1,true,false,[],[],[],preload,0,1050,0.0-0.0,ctamnhyct,"""","""","""","""","""",2022-01-29 00:55:44,173.80.212.22,"Mozilla/5.0 (Windows NT 10.0; Win64; x64) AppleWebKit/537.36 (KHTML, like Gecko) Chrome/97.0.4692.99 Safari/537.36 Edg/97.0.1072.69",WebKit,Edge,97.0.1072.69,Windows,10.0,4ea10649d1b3c5863b9e809baa721650
21,1,"""","""","""","""","""",html-keyboard-response,1,215331,0.0-1.0,ctamnhyct,214267,"<p style=""text-align:center;width:700px;""> Welcome to the experiment! This study takes most people around 10 minutes to complete. Please complete it in one sitting.</p>", ,"""","""",2022-01-29 00:55:44,173.80.212.22,"Mozilla/5.0 (Windows NT 10.0; Win64; x64) AppleWebKit/537.36 (KHTML, like Gecko) Chrome/97.0.4692.99 Safari/537.36 Edg/97.0.1072.69",WebKit,Edge,97.0.1072.69,Windows,10.0,4ea10649d1b3c5863b9e809baa721650
21,1,"""","""","""","""","""",html-keyboard-response,2,249741,0.0-2.0,ctamnhyct,34405,"<p style = ""font-size:16px;"">MIT Computational Cognitive Science Lab</p><h4>Press the 'y' key to consent.</h4><div style = ""background-color:#f2f2f2;""><h3>Informed Consent Form</h3><div style=""text-align:left;width:700px;""><p style = ""font-size:16px;"">In this HIT, you will be asked to read a set of instructions that describe a particular scenario, and you will then be asked to perform a simple task relating to that scenario. There will also be comprehension and attention checks. Participants who do not answer these checks correctly cannot be approved. In order to get credit for this HIT, you must read all the questions fully and answer honestly. You may only complete this HIT once. If you complete this HIT multiple times, you will be rejected.</p><p style = ""font-size:16px;"">This HIT is part of a MIT scientific research project. Your decision to complete this HIT is voluntary. There is no way for us to identify you. The only information we will have, in addition to your responses, is the time at which you completed the survey. The results of the research may be presented at scientific meetings or published in scientific journals. Pressing the ""Y"" key indicates that you are at least 18 years of age, and agree to complete this HIT voluntarily. Press the ""Y"" key to confirm your agreement and continue.</p></div>",y,"""","""",2022-01-29 00:55:44,173.80.212.22,"Mozilla/5.0 (Windows NT 10.0; Win64; x64) AppleWebKit/537.36 (KHTML, like Gecko) Chrome/97.0.4692.99 Safari/537.36 Edg/97.0.1072.69",WebKit,Edge,97.0.1072.69,Windows,10.0,4ea10649d1b3c5863b9e809baa721650
21,1,"""","""","""","""","""",survey-text,3,263107,0.0-3.0,ctamnhyct,13332,"""","{""instructions1"":""get water""}",instructions,"""",2022-01-29 00:55:44,173.80.212.22,"Mozilla/5.0 (Windows NT 10.0; Win64; x64) AppleWebKit/537.36 (KHTML, like Gecko) Chrome/97.0.4692.99 Safari/537.36 Edg/97.0.1072.69",WebKit,Edge,97.0.1072.69,Windows,10.0,4ea10649d1b3c5863b9e809baa721650
21,1,"""","""","""","""","""",survey-text,4,283102,0.0-4.0,ctamnhyct,19967,"""","{""instructions2"":""when all the people collect the water""}",instructions,"""",2022-01-29 00:55:44,173.80.212.22,"Mozilla/5.0 (Windows NT 10.0; Win64; x64) AppleWebKit/537.36 (KHTML, like Gecko) Chrome/97.0.4692.99 Safari/537.36 Edg/97.0.1072.69",WebKit,Edge,97.0.1072.69,Windows,10.0,4ea10649d1b3c5863b9e809baa721650
21,1,"""","""","""","""","""",survey-text,5,293205,0.0-5.0,ctamnhyct,10069,"""","{""instructions3"":""one""}",instructions,"""",2022-01-29 00:55:44,173.80.212.22,"Mozilla/5.0 (Windows NT 10.0; Win64; x64) AppleWebKit/537.36 (KHTML, like Gecko) Chrome/97.0.4692.99 Safari/537.36 Edg/97.0.1072.69",WebKit,Edge,97.0.1072.69,Windows,10.0,4ea10649d1b3c5863b9e809baa721650
21,1,"""","""","""","""","""",video-button-response,6,323701,0.0-6.0,ctamnhyct,30488,"[""video/no_line_1_0cut.mp4""]",0,no_0,video/no_line_1_0cut.mp4,2022-01-29 00:55:44,173.80.212.22,"Mozilla/5.0 (Windows NT 10.0; Win64; x64) AppleWebKit/537.36 (KHTML, like Gecko) Chrome/97.0.4692.99 Safari/537.36 Edg/97.0.1072.69",WebKit,Edge,97.0.1072.69,Windows,10.0,4ea10649d1b3c5863b9e809baa721650
21,1,"""","""","""","""","""",video-button-response,7,358791,0.0-7.0,ctamnhyct,35078,"[""video/yes_line_7_1cut.mp4""]",0,yes_1,video/yes_line_7_1cut.mp4,2022-01-29 00:55:44,173.80.212.22,"Mozilla/5.0 (Windows NT 10.0; Win64; x64) AppleWebKit/537.36 (KHTML, like Gecko) Chrome/97.0.4692.99 Safari/537.36 Edg/97.0.1072.69",WebKit,Edge,97.0.1072.69,Windows,10.0,4ea10649d1b3c5863b9e809baa721650
21,1,"""","""","""","""","""",video-button-response,8,395736,0.0-8.0,ctamnhyct,36939,"[""video/yes_line_7_0cut.mp4""]",1,yes_0,video/yes_line_7_0cut.mp4,2022-01-29 00:55:44,173.80.212.22,"Mozilla/5.0 (Windows NT 10.0; Win64; x64) AppleWebKit/537.36 (KHTML, like Gecko) Chrome/97.0.4692.99 Safari/537.36 Edg/97.0.1072.69",WebKit,Edge,97.0.1072.69,Windows,10.0,4ea10649d1b3c5863b9e809baa721650
21,1,"""","""","""","""","""",video-button-response,9,433161,0.0-9.0,ctamnhyct,37409,"[""video/no_line_1_1cut.mp4""]",1,no_1,video/no_line_1_1cut.mp4,2022-01-29 00:55:44,173.80.212.22,"Mozilla/5.0 (Windows NT 10.0; Win64; x64) AppleWebKit/537.36 (KHTML, like Gecko) Chrome/97.0.4692.99 Safari/537.36 Edg/97.0.1072.69",WebKit,Edge,97.0.1072.69,Windows,10.0,4ea10649d1b3c5863b9e809baa721650
21,1,"""","""","""","""","""",survey-html-form,10,443089,0.0-10.0,ctamnhyct,9914,"""","[{""name"":""understand"",""value"":""yes""},{""name"":""problems"",""value"":""no""},{""name"":""age"",""value"":""39""},{""name"":""gender"",""value"":""female""},{""name"":""comments"",""value"":""}]",debrief,"""",2022-01-29 00:55:44,173.80.212.22,"Mozilla/5.0 (Windows NT 10.0; Win64; x64) AppleWebKit/537.36 (KHTML, like Gecko) Chrome/97.0.4692.99 Safari/537.36 Edg/97.0.1072.69",WebKit,Edge,97.0.1072.69,Windows,10.0,4ea10649d1b3c5863b9e809baa721650
21,1,"""","""","""","""","""",survey-text,11,451301,0.0-11.0,ctamnhyct,8175,"""","{""Q0"":""A27O7H19C0WQ7T""}","""","""",2022-01-29 00:55:44,173.80.212.22,"Mozilla/5.0 (Windows NT 10.0; Win64; x64) AppleWebKit/537.36 (KHTML, like Gecko) Chrome/97.0.4692.99 Safari/537.36 Edg/97.0.1072.69",WebKit,Edge,97.0.1072.69,Windows,10.0,4ea10649d1b3c5863b9e809baa721650
31,1,true,false,[],[],[],preload,0,1270,0.0-0.0,dmwlsasuo,"""","""","""","""","""",2022-01-29 01:03:30,108.73.95.238,"Mozilla/5.0 (Windows NT 6.3; Win64; x64) AppleWebKit/537.36 (KHTML, like Gecko) Chrome/97.0.4692.99 Safari/537.36",WebKit,Chrome,97.0.4692.99,Windows,6.3,4ea10649d1b3c5863b9e809baa721650
31,1,"""","""","""","""","""",html-keyboard-response,1,2234,0.0-1.0,dmwlsasuo,955,"<p style=""text-align:center;width:700px;""> Welcome to the experiment! This study takes most people around 10 minutes to complete. Please complete it in one sitting.</p>", ,"""","""",2022-01-29 01:03:30,108.73.95.238,"Mozilla/5.0 (Windows NT 6.3; Win64; x64) AppleWebKit/537.36 (KHTML, like Gecko) Chrome/97.0.4692.99 Safari/537.36",WebKit,Chrome,97.0.4692.99,Windows,6.3,4ea10649d1b3c5863b9e809baa721650
31,1,"""","""","""","""","""",html-keyboard-response,2,3795,0.0-2.0,dmwlsasuo,1559,"<p style = ""font-size:16px;"">MIT Computational Cognitive Science Lab</p><h4>Press the 'y' key to consent.</h4><div style = ""background-color:#f2f2f2;""><h3>Informed Consent Form</h3><div style=""text-align:left;width:700px;""><p style = ""font-size:16px;"">In this HIT, you will be asked to read a set of instructions that describe a particular scenario, and you will then be asked to perform a simple task relating to that scenario. There will also be comprehension and attention checks. Participants who do not answer these checks correctly cannot be approved. In order to get credit for this HIT, you must read all the questions fully and answer honestly. You may only complete this HIT once. If you complete this HIT multiple times, you will be rejected.</p><p style = ""font-size:16px;"">This HIT is part of a MIT scientific research project. Your decision to complete this HIT is voluntary. There is no way for us to identify you. The only information we will have, in addition to your responses, is the time at which you completed the survey. The results of the research may be presented at scientific meetings or published in scientific journals. Pressing the ""Y"" key indicates that you are at least 18 years of age, and agree to complete this HIT voluntarily. Press the ""Y"" key to confirm your agreement and continue.</p></div>",y,"""","""",2022-01-29 01:03:30,108.73.95.238,"Mozilla/5.0 (Windows NT 6.3; Win64; x64) AppleWebKit/537.36 (KHTML, like Gecko) Chrome/97.0.4692.99 Safari/537.36",WebKit,Chrome,97.0.4692.99,Windows,6.3,4ea10649d1b3c5863b9e809baa721650
31,1,"""","""","""","""","""",survey-text,3,27462,0.0-3.0,dmwlsasuo,23659,"""","{""instructions1"":""Everyone in the game is trying to collect water from a water source and bring it back to the wooden storage buckets. Each person needs to collect one bucket of water for each level. The faster a person collects the bucket of water, the more points they receive.""}",instructions,"""",2022-01-29 01:03:30,108.73.95.238,"Mozilla/5.0 (Windows NT 6.3; Win64; x64) AppleWebKit/537.36 (KHTML, like Gecko) Chrome/97.0.4692.99 Safari/537.36",WebKit,Chrome,97.0.4692.99,Windows,6.3,4ea10649d1b3c5863b9e809baa721650
31,1,"""","""","""","""","""",survey-text,4,126022,0.0-4.0,dmwlsasuo,98548,"""","{""instructions2"":""Each video will end when all 8 people collect water and store it in a wooden storage bucket.""}",instructions,"""",2022-01-29 01:03:30,108.73.95.238,"Mozilla/5.0 (Windows NT 6.3; Win64; x64) AppleWebKit/537.36 (KHTML, like Gecko) Chrome/97.0.4692.99 Safari/537.36",WebKit,Chrome,97.0.4692.99,Windows,6.3,4ea10649d1b3c5863b9e809baa721650
31,1,"""","""","""","""","""",survey-text,5,150806,0.0-5.0,dmwlsasuo,24778,"""","{""instructions3"":""1""}",instructions,"""",2022-01-29 01:03:30,108.73.95.238,"Mozilla/5.0 (Windows NT 6.3; Win64; x64) AppleWebKit/537.36 (KHTML, like Gecko) Chrome/97.0.4692.99 Safari/537.36",WebKit,Chrome,97.0.4692.99,Windows,6.3,4ea10649d1b3c5863b9e809baa721650
31,1,"""","""","""","""","""",video-button-response,6,181694,0.0-6.0,dmwlsasuo,30882,"[""video/yes_line_7_0cut.mp4""]",1,yes_0,video/yes_line_7_0cut.mp4,2022-01-29 01:03:30,108.73.95.238,"Mozilla/5.0 (Windows NT 6.3; Win64; x64) AppleWebKit/537.36 (KHTML, like Gecko) Chrome/97.0.4692.99 Safari/537.36",WebKit,Chrome,97.0.4692.99,Windows,6.3,4ea10649d1b3c5863b9e809baa721650
31,1,"""","""","""","""","""",video-button-response,7,213380,0.0-7.0,dmwlsasuo,31682,"[""video/yes_line_7_1cut.mp4""]",0,yes_1,video/yes_line_7_1cut.mp4,2022-01-29 01:03:30,108.73.95.238,"Mozilla/5.0 (Windows NT 6.3; Win64; x64) AppleWebKit/537.36 (KHTML, like Gecko) Chrome/97.0.4692.99 Safari/537.36",WebKit,Chrome,97.0.4692.99,Windows,6.3,4ea10649d1b3c5863b9e809baa721650
31,1,"""","""","""","""","""",video-button-response,8,243679,0.0-8.0,dmwlsasuo,30292,"[""video/no_line_1_1cut.mp4""]",1,no_1,video/no_line_1_1cut.mp4,2022-01-29 01:03:30,108.73.95.238,"Mozilla/5.0 (Windows NT 6.3; Win64; x64) AppleWebKit/537.36 (KHTML, like Gecko) Chrome/97.0.4692.99 Safari/537.36",WebKit,Chrome,97.0.4692.99,Windows,6.3,4ea10649d1b3c5863b9e809baa721650
31,1,"""","""","""","""","""",video-button-response,9,274078,0.0-9.0,dmwlsasuo,30393,"[""video/no_line_1_0cut.mp4""]",1,no_0,video/no_line_1_0cut.mp4,2022-01-29 01:03:30,108.73.95.238,"Mozilla/5.0 (Windows NT 6.3; Win64; x64) AppleWebKit/537.36 (KHTML, like Gecko) Chrome/97.0.4692.99 Safari/537.36",WebKit,Chrome,97.0.4692.99,Windows,6.3,4ea10649d1b3c5863b9e809baa721650
31,1,"""","""","""","""","""",survey-html-form,10,286340,0.0-10.0,dmwlsasuo,12259,"""","[{""name"":""understand"",""value"":""yes""},{""name"":""problems"",""value"":""No""},{""name"":""age"",""value"":""47""},{""name"":""gender"",""value"":""male""},{""name"":""comments"",""value"":""A3FGT6EU39C6S4""}]",debrief,"""",2022-01-29 01:03:30,108.73.95.238,"Mozilla/5.0 (Windows NT 6.3; Win64; x64) AppleWebKit/537.36 (KHTML, like Gecko) Chrome/97.0.4692.99 Safari/537.36",WebKit,Chrome,97.0.4692.99,Windows,6.3,4ea10649d1b3c5863b9e809baa721650
31,1,"""","""","""","""","""",survey-text,11,304272,0.0-11.0,dmwlsasuo,17928,"""","{""Q0"":""dmwlsasuo""}","""","""",2022-01-29 01:03:30,108.73.95.238,"Mozilla/5.0 (Windows NT 6.3; Win64; x64) AppleWebKit/537.36 (KHTML, like Gecko) Chrome/97.0.4692.99 Safari/537.36",WebKit,Chrome,97.0.4692.99,Windows,6.3,4ea10649d1b3c5863b9e809baa721650
33,1,true,false,[],[],[],preload,0,927,0.0-0.0,n2ry1cge1,"""","""","""","""","""",2022-01-29 01:08:08,71.196.105.158,"Mozilla/5.0 (Macintosh; Intel Mac OS X 10_15_7) AppleWebKit/537.36 (KHTML, like Gecko) Chrome/96.0.4664.110 Safari/537.36",Macintosh,Chrome,96.0.4664.110,OS X,10_15_7,4ea10649d1b3c5863b9e809baa721650
33,1,"""","""","""","""","""",html-keyboard-response,1,2198,0.0-1.0,n2ry1cge1,1268,"<p style=""text-align:center;width:700px;""> Welcome to the experiment! This study takes most people around 10 minutes to complete. Please complete it in one sitting.</p>", ,"""","""",2022-01-29 01:08:08,71.196.105.158,"Mozilla/5.0 (Macintosh; Intel Mac OS X 10_15_7) AppleWebKit/537.36 (KHTML, like Gecko) Chrome/96.0.4664.110 Safari/537.36",Macintosh,Chrome,96.0.4664.110,OS X,10_15_7,4ea10649d1b3c5863b9e809baa721650
33,1,"""","""","""","""","""",html-keyboard-response,2,2885,0.0-2.0,n2ry1cge1,686,"<p style = ""font-size:16px;"">MIT Computational Cognitive Science Lab</p><h4>Press the 'y' key to consent.</h4><div style = ""background-color:#f2f2f2;""><h3>Informed Consent Form</h3><div style=""text-align:left;width:700px;""><p style = ""font-size:16px;"">In this HIT, you will be asked to read a set of instructions that describe a particular scenario, and you will then be asked to perform a simple task relating to that scenario. There will also be comprehension and attention checks. Participants who do not answer these checks correctly cannot be approved. In order to get credit for this HIT, you must read all the questions fully and answer honestly. You may only complete this HIT once. If you complete this HIT multiple times, you will be rejected.</p><p style = ""font-size:16px;"">This HIT is part of a MIT scientific research project. Your decision to complete this HIT is voluntary. There is no way for us to identify you. The only information we will have, in addition to your responses, is the time at which you completed the survey. The results of the research may be presented at scientific meetings or published in scientific journals. Pressing the ""Y"" key indicates that you are at least 18 years of age, and agree to complete this HIT voluntarily. Press the ""Y"" key to confirm your agreement and continue.</p></div>",y,"""","""",2022-01-29 01:08:08,71.196.105.158,"Mozilla/5.0 (Macintosh; Intel Mac OS X 10_15_7) AppleWebKit/537.36 (KHTML, like Gecko) Chrome/96.0.4664.110 Safari/537.36",Macintosh,Chrome,96.0.4664.110,OS X,10_15_7,4ea10649d1b3c5863b9e809baa721650
33,1,"""","""","""","""","""",survey-text,3,17427,0.0-3.0,n2ry1cge1,14538,"""","{""instructions1"":""To collect water from a water source and bring it back to the wooden storage buckets""}",instructions,"""",2022-01-29 01:08:08,71.196.105.158,"Mozilla/5.0 (Macintosh; Intel Mac OS X 10_15_7) AppleWebKit/537.36 (KHTML, like Gecko) Chrome/96.0.4664.110 Safari/537.36",Macintosh,Chrome,96.0.4664.110,OS X,10_15_7,4ea10649d1b3c5863b9e809baa721650
33,1,"""","""","""","""","""",survey-text,4,38710,0.0-4.0,n2ry1cge1,21274,"""","{""instructions2"":""All 8 people collect water and store it in a wooden storage bucket.""}",instructions,"""",2022-01-29 01:08:08,71.196.105.158,"Mozilla/5.0 (Macintosh; Intel Mac OS X 10_15_7) AppleWebKit/537.36 (KHTML, like Gecko) Chrome/96.0.4664.110 Safari/537.36",Macintosh,Chrome,96.0.4664.110,OS X,10_15_7,4ea10649d1b3c5863b9e809baa721650
33,1,"""","""","""","""","""",survey-text,5,59101,0.0-5.0,n2ry1cge1,20389,"""","{""instructions3"":""1""}",instructions,"""",2022-01-29 01:08:08,71.196.105.158,"Mozilla/5.0 (Macintosh; Intel Mac OS X 10_15_7) AppleWebKit/537.36 (KHTML, like Gecko) Chrome/96.0.4664.110 Safari/537.36",Macintosh,Chrome,96.0.4664.110,OS X,10_15_7,4ea10649d1b3c5863b9e809baa721650
33,1,"""","""","""","""","""",video-button-response,6,89592,0.0-6.0,n2ry1cge1,30487,"[""video/no_line_1_1cut.mp4""]",1,no_1,video/no_line_1_1cut.mp4,2022-01-29 01:08:08,71.196.105.158,"Mozilla/5.0 (Macintosh; Intel Mac OS X 10_15_7) AppleWebKit/537.36 (KHTML, like Gecko) Chrome/96.0.4664.110 Safari/537.36",Macintosh,Chrome,96.0.4664.110,OS X,10_15_7,4ea10649d1b3c5863b9e809baa721650
33,1,"""","""","""","""","""",video-button-response,7,129973,0.0-7.0,n2ry1cge1,40380,"[""video/yes_line_7_0cut.mp4""]",1,yes_0,video/yes_line_7_0cut.mp4,2022-01-29 01:08:08,71.196.105.158,"Mozilla/5.0 (Macintosh; Intel Mac OS X 10_15_7) AppleWebKit/537.36 (KHTML, like Gecko) Chrome/96.0.4664.110 Safari/537.36",Macintosh,Chrome,96.0.4664.110,OS X,10_15_7,4ea10649d1b3c5863b9e809baa721650
33,1,"""","""","""","""","""",video-button-response,8,159418,0.0-8.0,n2ry1cge1,29443,"[""video/no_line_1_0cut.mp4""]",1,no_0,video/no_line_1_0cut.mp4,2022-01-29 01:08:08,71.196.105.158,"Mozilla/5.0 (Macintosh; Intel Mac OS X 10_15_7) AppleWebKit/537.36 (KHTML, like Gecko) Chrome/96.0.4664.110 Safari/537.36",Macintosh,Chrome,96.0.4664.110,OS X,10_15_7,4ea10649d1b3c5863b9e809baa721650
33,1,"""","""","""","""","""",video-button-response,9,193403,0.0-9.0,n2ry1cge1,33984,"[""video/yes_line_7_1cut.mp4""]",0,yes_1,video/yes_line_7_1cut.mp4,2022-01-29 01:08:08,71.196.105.158,"Mozilla/5.0 (Macintosh; Intel Mac OS X 10_15_7) AppleWebKit/537.36 (KHTML, like Gecko) Chrome/96.0.4664.110 Safari/537.36",Macintosh,Chrome,96.0.4664.110,OS X,10_15_7,4ea10649d1b3c5863b9e809baa721650
33,1,"""","""","""","""","""",survey-html-form,10,211491,0.0-10.0,n2ry1cge1,18086,"""","[{""name"":""understand"",""value"":""yes""},{""name"":""problems"",""value"":""No""},{""name"":""age"",""value"":""27""},{""name"":""gender"",""value"":""male""},{""name"":""comments"",""value"":""}]",debrief,"""",2022-01-29 01:08:08,71.196.105.158,"Mozilla/5.0 (Macintosh; Intel Mac OS X 10_15_7) AppleWebKit/537.36 (KHTML, like Gecko) Chrome/96.0.4664.110 Safari/537.36",Macintosh,Chrome,96.0.4664.110,OS X,10_15_7,4ea10649d1b3c5863b9e809baa721650
33,1,"""","""","""","""","""",survey-text,11,223500,0.0-11.0,n2ry1cge1,12006,"""","{""Q0"":""n2ry1cge1""}","""","""",2022-01-29 01:08:08,71.196.105.158,"Mozilla/5.0 (Macintosh; Intel Mac OS X 10_15_7) AppleWebKit/537.36 (KHTML, like Gecko) Chrome/96.0.4664.110 Safari/537.36",Macintosh,Chrome,96.0.4664.110,OS X,10_15_7,4ea10649d1b3c5863b9e809baa721650
35,1,true,false,[],[],[],preload,0,384,0.0-0.0,4bezgltug,"""","""","""","""","""",2022-01-29 01:12:31,96.237.248.226,"Mozilla/5.0 (Windows NT 10.0; Win64; x64) AppleWebKit/537.36 (KHTML, like Gecko) Chrome/97.0.4692.99 Safari/537.36",WebKit,Chrome,97.0.4692.99,Windows,10.0,4ea10649d1b3c5863b9e809baa721650
35,1,"""","""","""","""","""",html-keyboard-response,1,2391,0.0-1.0,4bezgltug,2005,"<p style=""text-align:center;width:700px;""> Welcome to the experiment! This study takes most people around 10 minutes to complete. Please complete it in one sitting.</p>", ,"""","""",2022-01-29 01:12:31,96.237.248.226,"Mozilla/5.0 (Windows NT 10.0; Win64; x64) AppleWebKit/537.36 (KHTML, like Gecko) Chrome/97.0.4692.99 Safari/537.36",WebKit,Chrome,97.0.4692.99,Windows,10.0,4ea10649d1b3c5863b9e809baa721650
35,1,"""","""","""","""","""",html-keyboard-response,2,5535,0.0-2.0,4bezgltug,3143,"<p style = ""font-size:16px;"">MIT Computational Cognitive Science Lab</p><h4>Press the 'y' key to consent.</h4><div style = ""background-color:#f2f2f2;""><h3>Informed Consent Form</h3><div style=""text-align:left;width:700px;""><p style = ""font-size:16px;"">In this HIT, you will be asked to read a set of instructions that describe a particular scenario, and you will then be asked to perform a simple task relating to that scenario. There will also be comprehension and attention checks. Participants who do not answer these checks correctly cannot be approved. In order to get credit for this HIT, you must read all the questions fully and answer honestly. You may only complete this HIT once. If you complete this HIT multiple times, you will be rejected.</p><p style = ""font-size:16px;"">This HIT is part of a MIT scientific research project. Your decision to complete this HIT is voluntary. There is no way for us to identify you. The only information we will have, in addition to your responses, is the time at which you completed the survey. The results of the research may be presented at scientific meetings or published in scientific journals. Pressing the ""Y"" key indicates that you are at least 18 years of age, and agree to complete this HIT voluntarily. Press the ""Y"" key to confirm your agreement and continue.</p></div>",y,"""","""",2022-01-29 01:12:31,96.237.248.226,"Mozilla/5.0 (Windows NT 10.0; Win64; x64) AppleWebKit/537.36 (KHTML, like Gecko) Chrome/97.0.4692.99 Safari/537.36",WebKit,Chrome,97.0.4692.99,Windows,10.0,4ea10649d1b3c5863b9e809baa721650
35,1,"""","""","""","""","""",survey-text,3,64432,0.0-3.0,4bezgltug,58892,"""","{""instructions1"":""To collect water and bring it back to storage for points.""}",instructions,"""",2022-01-29 01:12:31,96.237.248.226,"Mozilla/5.0 (Windows NT 10.0; Win64; x64) AppleWebKit/537.36 (KHTML, like Gecko) Chrome/97.0.4692.99 Safari/537.36",WebKit,Chrome,97.0.4692.99,Windows,10.0,4ea10649d1b3c5863b9e809baa721650
35,1,"""","""","""","""","""",survey-text,4,736940,0.0-4.0,4bezgltug,672500,"""","{""instructions2"":""Each video ends when all 8 people collect water and store it in a wooden storage bucket.""}",instructions,"""",2022-01-29 01:12:31,96.237.248.226,"Mozilla/5.0 (Windows NT 10.0; Win64; x64) AppleWebKit/537.36 (KHTML, like Gecko) Chrome/97.0.4692.99 Safari/537.36",WebKit,Chrome,97.0.4692.99,Windows,10.0,4ea10649d1b3c5863b9e809baa721650
35,1,"""","""","""","""","""",survey-text,5,772759,0.0-5.0,4bezgltug,35815,"""","{""instructions3"":""8 people are focused on to judge in each video.""}",instructions,"""",2022-01-29 01:12:31,96.237.248.226,"Mozilla/5.0 (Windows NT 10.0; Win64; x64) AppleWebKit/537.36 (KHTML, like Gecko) Chrome/97.0.4692.99 Safari/537.36",WebKit,Chrome,97.0.4692.99,Windows,10.0,4ea10649d1b3c5863b9e809baa721650
35,1,"""","""","""","""","""",video-button-response,6,855042,0.0-6.0,4bezgltug,82278,"[""video/yes_line_7_1cut.mp4""]",0,yes_1,video/yes_line_7_1cut.mp4,2022-01-29 01:12:31,96.237.248.226,"Mozilla/5.0 (Windows NT 10.0; Win64; x64) AppleWebKit/537.36 (KHTML, like Gecko) Chrome/97.0.4692.99 Safari/537.36",WebKit,Chrome,97.0.4692.99,Windows,10.0,4ea10649d1b3c5863b9e809baa721650
35,1,"""","""","""","""","""",video-button-response,7,905425,0.0-7.0,4bezgltug,50382,"[""video/yes_line_7_0cut.mp4""]",1,yes_0,video/yes_line_7_0cut.mp4,2022-01-29 01:12:31,96.237.248.226,"Mozilla/5.0 (Windows NT 10.0; Win64; x64) AppleWebKit/537.36 (KHTML, like Gecko) Chrome/97.0.4692.99 Safari/537.36",WebKit,Chrome,97.0.4692.99,Windows,10.0,4ea10649d1b3c5863b9e809baa721650
35,1,"""","""","""","""","""",video-button-response,8,987044,0.0-8.0,4bezgltug,81616,"[""video/no_line_1_1cut.mp4""]",0,no_1,video/no_line_1_1cut.mp4,2022-01-29 01:12:31,96.237.248.226,"Mozilla/5.0 (Windows NT 10.0; Win64; x64) AppleWebKit/537.36 (KHTML, like Gecko) Chrome/97.0.4692.99 Safari/537.36",WebKit,Chrome,97.0.4692.99,Windows,10.0,4ea10649d1b3c5863b9e809baa721650
35,1,"""","""","""","""","""",video-button-response,9,1017570,0.0-9.0,4bezgltug,30525,"[""video/no_line_1_0cut.mp4""]",1,no_0,video/no_line_1_0cut.mp4,2022-01-29 01:12:31,96.237.248.226,"Mozilla/5.0 (Windows NT 10.0; Win64; x64) AppleWebKit/537.36 (KHTML, like Gecko) Chrome/97.0.4692.99 Safari/537.36",WebKit,Chrome,97.0.4692.99,Windows,10.0,4ea10649d1b3c5863b9e809baa721650
35,1,"""","""","""","""","""",survey-html-form,10,1046088,0.0-10.0,4bezgltug,28516,"""","[{""name"":""understand"",""value"":""yes""},{""name"":""problems"",""value"":""I didn't see any problems or bugs.""},{""name"":""age"",""value"":""24""},{""name"":""gender"",""value"":""male""},{""name"":""comments"",""value"":""No, none to comment on.""}]",debrief,"""",2022-01-29 01:12:31,96.237.248.226,"Mozilla/5.0 (Windows NT 10.0; Win64; x64) AppleWebKit/537.36 (KHTML, like Gecko) Chrome/97.0.4692.99 Safari/537.36",WebKit,Chrome,97.0.4692.99,Windows,10.0,4ea10649d1b3c5863b9e809baa721650
35,1,"""","""","""","""","""",survey-text,11,1071518,0.0-11.0,4bezgltug,25426,"""","{""Q0"":""4bezgltug""}","""","""",2022-01-29 01:12:31,96.237.248.226,"Mozilla/5.0 (Windows NT 10.0; Win64; x64) AppleWebKit/537.36 (KHTML, like Gecko) Chrome/97.0.4692.99 Safari/537.36",WebKit,Chrome,97.0.4692.99,Windows,10.0,4ea10649d1b3c5863b9e809baa721650
28,1,true,false,[],[],[],preload,0,628,0.0-0.0,cw6c7qv0n,"""","""","""","""","""",2022-01-29 01:00:07,24.163.27.166,"Mozilla/5.0 (Macintosh; Intel Mac OS X 10_15_7) AppleWebKit/537.36 (KHTML, like Gecko) Chrome/97.0.4692.99 Safari/537.36",Macintosh,Chrome,97.0.4692.99,OS X,10_15_7,4ea10649d1b3c5863b9e809baa721650
28,1,"""","""","""","""","""",html-keyboard-response,1,3349,0.0-1.0,cw6c7qv0n,2716,"<p style=""text-align:center;width:700px;""> Welcome to the experiment! This study takes most people around 10 minutes to complete. Please complete it in one sitting.</p>", ,"""","""",2022-01-29 01:00:07,24.163.27.166,"Mozilla/5.0 (Macintosh; Intel Mac OS X 10_15_7) AppleWebKit/537.36 (KHTML, like Gecko) Chrome/97.0.4692.99 Safari/537.36",Macintosh,Chrome,97.0.4692.99,OS X,10_15_7,4ea10649d1b3c5863b9e809baa721650
