run_id,condition,success,timeout,failed_images,failed_audio,failed_video,trial_type,trial_index,time_elapsed,internal_node_id,ID,rt,stimulus,response,trial_category,stimulus_name,recorded_at,ip,user_agent,device,browser,browser_version,platform,platform_version,source_code_version
12,1,true,false,[],[],[],preload,0,751,0.0-0.0,ek64c2hy2,"""","""","""","""","""",2022-01-29 00:48:29,73.175.0.76,"Mozilla/5.0 (Windows NT 10.0; Win64; x64) AppleWebKit/537.36 (KHTML, like Gecko) Chrome/97.0.4692.99 Safari/537.36",WebKit,Chrome,97.0.4692.99,Windows,10.0,667187245be6ec34b92381730ecb5f9e
12,1,"""","""","""","""","""",html-keyboard-response,1,3783,0.0-1.0,ek64c2hy2,3028,"<p style=""text-align:center;width:700px;""> Welcome to the experiment! This study takes most people around 10 minutes to complete. Please complete it in one sitting.</p>", ,"""","""",2022-01-29 00:48:29,73.175.0.76,"Mozilla/5.0 (Windows NT 10.0; Win64; x64) AppleWebKit/537.36 (KHTML, like Gecko) Chrome/97.0.4692.99 Safari/537.36",WebKit,Chrome,97.0.4692.99,Windows,10.0,667187245be6ec34b92381730ecb5f9e
12,1,"""","""","""","""","""",html-keyboard-response,2,18982,0.0-2.0,ek64c2hy2,15199,"<p style = ""font-size:16px;"">MIT Computational Cognitive Science Lab</p><h4>Press the 'y' key to consent.</h4><div style = ""background-color:#f2f2f2;""><h3>Informed Consent Form</h3><div style=""text-align:left;width:700px;""><p style = ""font-size:16px;"">In this HIT, you will be asked to read a set of instructions that describe a particular scenario, and you will then be asked to perform a simple task relating to that scenario. There will also be comprehension and attention checks. Participants who do not answer these checks correctly cannot be approved. In order to get credit for this HIT, you must read all the questions fully and answer honestly. You may only complete this HIT once. If you complete this HIT multiple times, you will be rejected.</p><p style = ""font-size:16px;"">This HIT is part of a MIT scientific research project. Your decision to complete this HIT is voluntary. There is no way for us to identify you. The only information we will have, in addition to your responses, is the time at which you completed the survey. The results of the research may be presented at scientific meetings or published in scientific journals. Pressing the ""Y"" key indicates that you are at least 18 years of age, and agree to complete this HIT voluntarily. Press the ""Y"" key to confirm your agreement and continue.</p></div>",y,"""","""",2022-01-29 00:48:29,73.175.0.76,"Mozilla/5.0 (Windows NT 10.0; Win64; x64) AppleWebKit/537.36 (KHTML, like Gecko) Chrome/97.0.4692.99 Safari/537.36",WebKit,Chrome,97.0.4692.99,Windows,10.0,667187245be6ec34b92381730ecb5f9e
12,1,"""","""","""","""","""",survey-text,3,61756,0.0-3.0,ek64c2hy2,42763,"""","{""instructions1"":""collect water from a water source and bring it back to the wooden storage buckets""}",instructions,"""",2022-01-29 00:48:29,73.175.0.76,"Mozilla/5.0 (Windows NT 10.0; Win64; x64) AppleWebKit/537.36 (KHTML, like Gecko) Chrome/97.0.4692.99 Safari/537.36",WebKit,Chrome,97.0.4692.99,Windows,10.0,667187245be6ec34b92381730ecb5f9e
12,1,"""","""","""","""","""",survey-text,4,121126,0.0-4.0,ek64c2hy2,59359,"""","{""instructions2"":""when all 8 people collect water and store it in a wooden storage bucket.""}",instructions,"""",2022-01-29 00:48:29,73.175.0.76,"Mozilla/5.0 (Windows NT 10.0; Win64; x64) AppleWebKit/537.36 (KHTML, like Gecko) Chrome/97.0.4692.99 Safari/537.36",WebKit,Chrome,97.0.4692.99,Windows,10.0,667187245be6ec34b92381730ecb5f9e
12,1,"""","""","""","""","""",survey-text,5,173047,0.0-5.0,ek64c2hy2,51915,"""","{""instructions3"":""decide whether they will definitely stay in line or take opportunities to leave the line and head directly for the water source""}",instructions,"""",2022-01-29 00:48:29,73.175.0.76,"Mozilla/5.0 (Windows NT 10.0; Win64; x64) AppleWebKit/537.36 (KHTML, like Gecko) Chrome/97.0.4692.99 Safari/537.36",WebKit,Chrome,97.0.4692.99,Windows,10.0,667187245be6ec34b92381730ecb5f9e
12,1,"""","""","""","""","""",survey-text,6,280034,0.0-6.0,ek64c2hy2,106985,"""","{""instructions4"":""This is the only person who didn’t have to decide their strategy ahead of time""}",instructions,"""",2022-01-29 00:48:29,73.175.0.76,"Mozilla/5.0 (Windows NT 10.0; Win64; x64) AppleWebKit/537.36 (KHTML, like Gecko) Chrome/97.0.4692.99 Safari/537.36",WebKit,Chrome,97.0.4692.99,Windows,10.0,667187245be6ec34b92381730ecb5f9e
12,1,"""","""","""","""","""",video-button-response,7,313976,0.0-7.0,ek64c2hy2,33935,"[""video/yes_line_7_1cut.mp4""]",1,yes_1,video/yes_line_7_1cut.mp4,2022-01-29 00:48:29,73.175.0.76,"Mozilla/5.0 (Windows NT 10.0; Win64; x64) AppleWebKit/537.36 (KHTML, like Gecko) Chrome/97.0.4692.99 Safari/537.36",WebKit,Chrome,97.0.4692.99,Windows,10.0,667187245be6ec34b92381730ecb5f9e
12,1,"""","""","""","""","""",video-button-response,8,346077,0.0-8.0,ek64c2hy2,32097,"[""video/no_line_1_1cut.mp4""]",1,no_1,video/no_line_1_1cut.mp4,2022-01-29 00:48:29,73.175.0.76,"Mozilla/5.0 (Windows NT 10.0; Win64; x64) AppleWebKit/537.36 (KHTML, like Gecko) Chrome/97.0.4692.99 Safari/537.36",WebKit,Chrome,97.0.4692.99,Windows,10.0,667187245be6ec34b92381730ecb5f9e
12,1,"""","""","""","""","""",video-button-response,9,377031,0.0-9.0,ek64c2hy2,30950,"[""video/no_line_1_0cut.mp4""]",1,no_0,video/no_line_1_0cut.mp4,2022-01-29 00:48:29,73.175.0.76,"Mozilla/5.0 (Windows NT 10.0; Win64; x64) AppleWebKit/537.36 (KHTML, like Gecko) Chrome/97.0.4692.99 Safari/537.36",WebKit,Chrome,97.0.4692.99,Windows,10.0,667187245be6ec34b92381730ecb5f9e
12,1,"""","""","""","""","""",video-button-response,10,407709,0.0-10.0,ek64c2hy2,30675,"[""video/yes_line_7_0cut.mp4""]",1,yes_0,video/yes_line_7_0cut.mp4,2022-01-29 00:48:29,73.175.0.76,"Mozilla/5.0 (Windows NT 10.0; Win64; x64) AppleWebKit/537.36 (KHTML, like Gecko) Chrome/97.0.4692.99 Safari/537.36",WebKit,Chrome,97.0.4692.99,Windows,10.0,667187245be6ec34b92381730ecb5f9e
12,1,"""","""","""","""","""",survey-html-form,11,430517,0.0-11.0,ek64c2hy2,22805,"""","[{""name"":""understand"",""value"":""yes""},{""name"":""problems"",""value"":""none""},{""name"":""age"",""value"":""51""},{""name"":""gender"",""value"":""male""},{""name"":""comments"",""value"":""no""}]",debrief,"""",2022-01-29 00:48:29,73.175.0.76,"Mozilla/5.0 (Windows NT 10.0; Win64; x64) AppleWebKit/537.36 (KHTML, like Gecko) Chrome/97.0.4692.99 Safari/537.36",WebKit,Chrome,97.0.4692.99,Windows,10.0,667187245be6ec34b92381730ecb5f9e
12,1,"""","""","""","""","""",survey-text,12,456262,0.0-12.0,ek64c2hy2,25739,"""","{""Q0"":""ek64c2hy2""}","""","""",2022-01-29 00:48:29,73.175.0.76,"Mozilla/5.0 (Windows NT 10.0; Win64; x64) AppleWebKit/537.36 (KHTML, like Gecko) Chrome/97.0.4692.99 Safari/537.36",WebKit,Chrome,97.0.4692.99,Windows,10.0,667187245be6ec34b92381730ecb5f9e
16,1,true,false,[],[],[],preload,0,1354,0.0-0.0,663sel4nw,"""","""","""","""","""",2022-01-29 00:53:03,67.180.106.232,"Mozilla/5.0 (Windows NT 10.0; Win64; x64) AppleWebKit/537.36 (KHTML, like Gecko) Chrome/97.0.4692.99 Safari/537.36",WebKit,Chrome,97.0.4692.99,Windows,10.0,667187245be6ec34b92381730ecb5f9e
16,1,"""","""","""","""","""",html-keyboard-response,1,4588,0.0-1.0,663sel4nw,3214,"<p style=""text-align:center;width:700px;""> Welcome to the experiment! This study takes most people around 10 minutes to complete. Please complete it in one sitting.</p>", ,"""","""",2022-01-29 00:53:03,67.180.106.232,"Mozilla/5.0 (Windows NT 10.0; Win64; x64) AppleWebKit/537.36 (KHTML, like Gecko) Chrome/97.0.4692.99 Safari/537.36",WebKit,Chrome,97.0.4692.99,Windows,10.0,667187245be6ec34b92381730ecb5f9e
16,1,"""","""","""","""","""",html-keyboard-response,2,5231,0.0-2.0,663sel4nw,642,"<p style = ""font-size:16px;"">MIT Computational Cognitive Science Lab</p><h4>Press the 'y' key to consent.</h4><div style = ""background-color:#f2f2f2;""><h3>Informed Consent Form</h3><div style=""text-align:left;width:700px;""><p style = ""font-size:16px;"">In this HIT, you will be asked to read a set of instructions that describe a particular scenario, and you will then be asked to perform a simple task relating to that scenario. There will also be comprehension and attention checks. Participants who do not answer these checks correctly cannot be approved. In order to get credit for this HIT, you must read all the questions fully and answer honestly. You may only complete this HIT once. If you complete this HIT multiple times, you will be rejected.</p><p style = ""font-size:16px;"">This HIT is part of a MIT scientific research project. Your decision to complete this HIT is voluntary. There is no way for us to identify you. The only information we will have, in addition to your responses, is the time at which you completed the survey. The results of the research may be presented at scientific meetings or published in scientific journals. Pressing the ""Y"" key indicates that you are at least 18 years of age, and agree to complete this HIT voluntarily. Press the ""Y"" key to confirm your agreement and continue.</p></div>",y,"""","""",2022-01-29 00:53:03,67.180.106.232,"Mozilla/5.0 (Windows NT 10.0; Win64; x64) AppleWebKit/537.36 (KHTML, like Gecko) Chrome/97.0.4692.99 Safari/537.36",WebKit,Chrome,97.0.4692.99,Windows,10.0,667187245be6ec34b92381730ecb5f9e
16,1,"""","""","""","""","""",survey-text,3,20185,0.0-3.0,663sel4nw,14923,"""","{""instructions1"":""bring water from the source to the storage""}",instructions,"""",2022-01-29 00:53:03,67.180.106.232,"Mozilla/5.0 (Windows NT 10.0; Win64; x64) AppleWebKit/537.36 (KHTML, like Gecko) Chrome/97.0.4692.99 Safari/537.36",WebKit,Chrome,97.0.4692.99,Windows,10.0,667187245be6ec34b92381730ecb5f9e
16,1,"""","""","""","""","""",survey-text,4,34776,0.0-4.0,663sel4nw,14574,"""","{""instructions2"":""when 8 people have brought water from source to the storage""}",instructions,"""",2022-01-29 00:53:03,67.180.106.232,"Mozilla/5.0 (Windows NT 10.0; Win64; x64) AppleWebKit/537.36 (KHTML, like Gecko) Chrome/97.0.4692.99 Safari/537.36",WebKit,Chrome,97.0.4692.99,Windows,10.0,667187245be6ec34b92381730ecb5f9e
16,1,"""","""","""","""","""",survey-text,5,71429,0.0-5.0,663sel4nw,36647,"""","{""instructions3"":""they have to decide to wait in line or head right for the source""}",instructions,"""",2022-01-29 00:53:03,67.180.106.232,"Mozilla/5.0 (Windows NT 10.0; Win64; x64) AppleWebKit/537.36 (KHTML, like Gecko) Chrome/97.0.4692.99 Safari/537.36",WebKit,Chrome,97.0.4692.99,Windows,10.0,667187245be6ec34b92381730ecb5f9e
16,1,"""","""","""","""","""",survey-text,6,90746,0.0-6.0,663sel4nw,19307,"""","{""instructions4"":""they didn't have to decide before hand what they are going to do""}",instructions,"""",2022-01-29 00:53:03,67.180.106.232,"Mozilla/5.0 (Windows NT 10.0; Win64; x64) AppleWebKit/537.36 (KHTML, like Gecko) Chrome/97.0.4692.99 Safari/537.36",WebKit,Chrome,97.0.4692.99,Windows,10.0,667187245be6ec34b92381730ecb5f9e
16,1,"""","""","""","""","""",video-button-response,7,110137,0.0-7.0,663sel4nw,19387,"[""video/yes_line_7_1cut.mp4""]",1,yes_1,video/yes_line_7_1cut.mp4,2022-01-29 00:53:03,67.180.106.232,"Mozilla/5.0 (Windows NT 10.0; Win64; x64) AppleWebKit/537.36 (KHTML, like Gecko) Chrome/97.0.4692.99 Safari/537.36",WebKit,Chrome,97.0.4692.99,Windows,10.0,667187245be6ec34b92381730ecb5f9e
16,1,"""","""","""","""","""",video-button-response,8,129022,0.0-8.0,663sel4nw,18880,"[""video/no_line_1_0cut.mp4""]",1,no_0,video/no_line_1_0cut.mp4,2022-01-29 00:53:03,67.180.106.232,"Mozilla/5.0 (Windows NT 10.0; Win64; x64) AppleWebKit/537.36 (KHTML, like Gecko) Chrome/97.0.4692.99 Safari/537.36",WebKit,Chrome,97.0.4692.99,Windows,10.0,667187245be6ec34b92381730ecb5f9e
16,1,"""","""","""","""","""",video-button-response,9,162035,0.0-9.0,663sel4nw,33009,"[""video/no_line_1_1cut.mp4""]",1,no_1,video/no_line_1_1cut.mp4,2022-01-29 00:53:03,67.180.106.232,"Mozilla/5.0 (Windows NT 10.0; Win64; x64) AppleWebKit/537.36 (KHTML, like Gecko) Chrome/97.0.4692.99 Safari/537.36",WebKit,Chrome,97.0.4692.99,Windows,10.0,667187245be6ec34b92381730ecb5f9e
16,1,"""","""","""","""","""",video-button-response,10,189912,0.0-10.0,663sel4nw,27870,"[""video/yes_line_7_0cut.mp4""]",1,yes_0,video/yes_line_7_0cut.mp4,2022-01-29 00:53:03,67.180.106.232,"Mozilla/5.0 (Windows NT 10.0; Win64; x64) AppleWebKit/537.36 (KHTML, like Gecko) Chrome/97.0.4692.99 Safari/537.36",WebKit,Chrome,97.0.4692.99,Windows,10.0,667187245be6ec34b92381730ecb5f9e
16,1,"""","""","""","""","""",survey-html-form,11,194984,0.0-11.0,663sel4nw,5068,"""","[{""name"":""understand"",""value"":""yes""},{""name"":""problems"",""value"":""none""},{""name"":""age"",""value"":""42""},{""name"":""gender"",""value"":""male""},{""name"":""comments"",""value"":""}]",debrief,"""",2022-01-29 00:53:03,67.180.106.232,"Mozilla/5.0 (Windows NT 10.0; Win64; x64) AppleWebKit/537.36 (KHTML, like Gecko) Chrome/97.0.4692.99 Safari/537.36",WebKit,Chrome,97.0.4692.99,Windows,10.0,667187245be6ec34b92381730ecb5f9e
16,1,"""","""","""","""","""",survey-text,12,198733,0.0-12.0,663sel4nw,3737,"""","{""Q0"":""663sel4nw ""}","""","""",2022-01-29 00:53:03,67.180.106.232,"Mozilla/5.0 (Windows NT 10.0; Win64; x64) AppleWebKit/537.36 (KHTML, like Gecko) Chrome/97.0.4692.99 Safari/537.36",WebKit,Chrome,97.0.4692.99,Windows,10.0,667187245be6ec34b92381730ecb5f9e
18,1,true,false,[],[],[],preload,0,603,0.0-0.0,6k95upfm1,"""","""","""","""","""",2022-01-29 00:54:31,71.71.214.155,"Mozilla/5.0 (Windows NT 10.0; Win64; x64) AppleWebKit/537.36 (KHTML, like Gecko) Chrome/97.0.4692.99 Safari/537.36 Edg/97.0.1072.69",WebKit,Edge,97.0.1072.69,Windows,10.0,667187245be6ec34b92381730ecb5f9e
18,1,"""","""","""","""","""",html-keyboard-response,1,119283,0.0-1.0,6k95upfm1,118678,"<p style=""text-align:center;width:700px;""> Welcome to the experiment! This study takes most people around 10 minutes to complete. Please complete it in one sitting.</p>", ,"""","""",2022-01-29 00:54:31,71.71.214.155,"Mozilla/5.0 (Windows NT 10.0; Win64; x64) AppleWebKit/537.36 (KHTML, like Gecko) Chrome/97.0.4692.99 Safari/537.36 Edg/97.0.1072.69",WebKit,Edge,97.0.1072.69,Windows,10.0,667187245be6ec34b92381730ecb5f9e
18,1,"""","""","""","""","""",html-keyboard-response,2,124584,0.0-2.0,6k95upfm1,5301,"<p style = ""font-size:16px;"">MIT Computational Cognitive Science Lab</p><h4>Press the 'y' key to consent.</h4><div style = ""background-color:#f2f2f2;""><h3>Informed Consent Form</h3><div style=""text-align:left;width:700px;""><p style = ""font-size:16px;"">In this HIT, you will be asked to read a set of instructions that describe a particular scenario, and you will then be asked to perform a simple task relating to that scenario. There will also be comprehension and attention checks. Participants who do not answer these checks correctly cannot be approved. In order to get credit for this HIT, you must read all the questions fully and answer honestly. You may only complete this HIT once. If you complete this HIT multiple times, you will be rejected.</p><p style = ""font-size:16px;"">This HIT is part of a MIT scientific research project. Your decision to complete this HIT is voluntary. There is no way for us to identify you. The only information we will have, in addition to your responses, is the time at which you completed the survey. The results of the research may be presented at scientific meetings or published in scientific journals. Pressing the ""Y"" key indicates that you are at least 18 years of age, and agree to complete this HIT voluntarily. Press the ""Y"" key to confirm your agreement and continue.</p></div>",y,"""","""",2022-01-29 00:54:31,71.71.214.155,"Mozilla/5.0 (Windows NT 10.0; Win64; x64) AppleWebKit/537.36 (KHTML, like Gecko) Chrome/97.0.4692.99 Safari/537.36 Edg/97.0.1072.69",WebKit,Edge,97.0.1072.69,Windows,10.0,667187245be6ec34b92381730ecb5f9e
18,1,"""","""","""","""","""",survey-text,3,193462,0.0-3.0,6k95upfm1,68870,"""","{""instructions1"":""The goal is for each person to collect water from the source and bring it back to the wooden storage buckets.""}",instructions,"""",2022-01-29 00:54:31,71.71.214.155,"Mozilla/5.0 (Windows NT 10.0; Win64; x64) AppleWebKit/537.36 (KHTML, like Gecko) Chrome/97.0.4692.99 Safari/537.36 Edg/97.0.1072.69",WebKit,Edge,97.0.1072.69,Windows,10.0,667187245be6ec34b92381730ecb5f9e
18,1,"""","""","""","""","""",survey-text,4,263006,0.0-4.0,6k95upfm1,69535,"""","{""instructions2"":""When all eight people collect water and store it in the wooden storage bucket.""}",instructions,"""",2022-01-29 00:54:31,71.71.214.155,"Mozilla/5.0 (Windows NT 10.0; Win64; x64) AppleWebKit/537.36 (KHTML, like Gecko) Chrome/97.0.4692.99 Safari/537.36 Edg/97.0.1072.69",WebKit,Edge,97.0.1072.69,Windows,10.0,667187245be6ec34b92381730ecb5f9e
18,1,"""","""","""","""","""",survey-text,5,324742,0.0-5.0,6k95upfm1,61732,"""","{""instructions3"":""Whether to wait in line or to leave it and head directly for the water source no matter where they were in the line.""}",instructions,"""",2022-01-29 00:54:31,71.71.214.155,"Mozilla/5.0 (Windows NT 10.0; Win64; x64) AppleWebKit/537.36 (KHTML, like Gecko) Chrome/97.0.4692.99 Safari/537.36 Edg/97.0.1072.69",WebKit,Edge,97.0.1072.69,Windows,10.0,667187245be6ec34b92381730ecb5f9e
18,1,"""","""","""","""","""",survey-text,6,383969,0.0-6.0,6k95upfm1,59224,"""","{""instructions4"":""That person has the freedom of choice between staying in line or leaving it during the game, unlike the rest who have to choose before the game and cannot change their mind once the game starts.""}",instructions,"""",2022-01-29 00:54:31,71.71.214.155,"Mozilla/5.0 (Windows NT 10.0; Win64; x64) AppleWebKit/537.36 (KHTML, like Gecko) Chrome/97.0.4692.99 Safari/537.36 Edg/97.0.1072.69",WebKit,Edge,97.0.1072.69,Windows,10.0,667187245be6ec34b92381730ecb5f9e
18,1,"""","""","""","""","""",video-button-response,7,416395,0.0-7.0,6k95upfm1,32423,"[""video/yes_line_7_0cut.mp4""]",1,yes_0,video/yes_line_7_0cut.mp4,2022-01-29 00:54:31,71.71.214.155,"Mozilla/5.0 (Windows NT 10.0; Win64; x64) AppleWebKit/537.36 (KHTML, like Gecko) Chrome/97.0.4692.99 Safari/537.36 Edg/97.0.1072.69",WebKit,Edge,97.0.1072.69,Windows,10.0,667187245be6ec34b92381730ecb5f9e
18,1,"""","""","""","""","""",video-button-response,8,446690,0.0-8.0,6k95upfm1,30294,"[""video/yes_line_7_1cut.mp4""]",0,yes_1,video/yes_line_7_1cut.mp4,2022-01-29 00:54:31,71.71.214.155,"Mozilla/5.0 (Windows NT 10.0; Win64; x64) AppleWebKit/537.36 (KHTML, like Gecko) Chrome/97.0.4692.99 Safari/537.36 Edg/97.0.1072.69",WebKit,Edge,97.0.1072.69,Windows,10.0,667187245be6ec34b92381730ecb5f9e
18,1,"""","""","""","""","""",video-button-response,9,478408,0.0-9.0,6k95upfm1,31714,"[""video/no_line_1_0cut.mp4""]",1,no_0,video/no_line_1_0cut.mp4,2022-01-29 00:54:31,71.71.214.155,"Mozilla/5.0 (Windows NT 10.0; Win64; x64) AppleWebKit/537.36 (KHTML, like Gecko) Chrome/97.0.4692.99 Safari/537.36 Edg/97.0.1072.69",WebKit,Edge,97.0.1072.69,Windows,10.0,667187245be6ec34b92381730ecb5f9e
18,1,"""","""","""","""","""",video-button-response,10,508416,0.0-10.0,6k95upfm1,30006,"[""video/no_line_1_1cut.mp4""]",1,no_1,video/no_line_1_1cut.mp4,2022-01-29 00:54:31,71.71.214.155,"Mozilla/5.0 (Windows NT 10.0; Win64; x64) AppleWebKit/537.36 (KHTML, like Gecko) Chrome/97.0.4692.99 Safari/537.36 Edg/97.0.1072.69",WebKit,Edge,97.0.1072.69,Windows,10.0,667187245be6ec34b92381730ecb5f9e
18,1,"""","""","""","""","""",survey-html-form,11,522396,0.0-11.0,6k95upfm1,13978,"""","[{""name"":""understand"",""value"":""yes""},{""name"":""problems"",""value"":""No problems are bugs.""},{""name"":""age"",""value"":""36""},{""name"":""gender"",""value"":""male""},{""name"":""comments"",""value"":""}]",debrief,"""",2022-01-29 00:54:31,71.71.214.155,"Mozilla/5.0 (Windows NT 10.0; Win64; x64) AppleWebKit/537.36 (KHTML, like Gecko) Chrome/97.0.4692.99 Safari/537.36 Edg/97.0.1072.69",WebKit,Edge,97.0.1072.69,Windows,10.0,667187245be6ec34b92381730ecb5f9e
18,1,"""","""","""","""","""",survey-text,12,531263,0.0-12.0,6k95upfm1,8860,"""","{""Q0"":""6k95upfm1""}","""","""",2022-01-29 00:54:31,71.71.214.155,"Mozilla/5.0 (Windows NT 10.0; Win64; x64) AppleWebKit/537.36 (KHTML, like Gecko) Chrome/97.0.4692.99 Safari/537.36 Edg/97.0.1072.69",WebKit,Edge,97.0.1072.69,Windows,10.0,667187245be6ec34b92381730ecb5f9e
2,1,true,false,[],[],[],preload,0,3190,0.0-0.0,tmc4xgmf3,"""","""","""","""","""",2022-01-29 00:46:03,174.67.203.139,"Mozilla/5.0 (Windows NT 10.0; Win64; x64) AppleWebKit/537.36 (KHTML, like Gecko) Chrome/94.0.4606.54 Safari/537.36 Edg/93.0.961.38",WebKit,Edge,93.0.961.38,Windows,10.0,667187245be6ec34b92381730ecb5f9e
2,1,"""","""","""","""","""",html-keyboard-response,1,9717,0.0-1.0,tmc4xgmf3,6523,"<p style=""text-align:center;width:700px;""> Welcome to the experiment! This study takes most people around 10 minutes to complete. Please complete it in one sitting.</p>", ,"""","""",2022-01-29 00:46:03,174.67.203.139,"Mozilla/5.0 (Windows NT 10.0; Win64; x64) AppleWebKit/537.36 (KHTML, like Gecko) Chrome/94.0.4606.54 Safari/537.36 Edg/93.0.961.38",WebKit,Edge,93.0.961.38,Windows,10.0,667187245be6ec34b92381730ecb5f9e
2,1,"""","""","""","""","""",html-keyboard-response,2,11759,0.0-2.0,tmc4xgmf3,2041,"<p style = ""font-size:16px;"">MIT Computational Cognitive Science Lab</p><h4>Press the 'y' key to consent.</h4><div style = ""background-color:#f2f2f2;""><h3>Informed Consent Form</h3><div style=""text-align:left;width:700px;""><p style = ""font-size:16px;"">In this HIT, you will be asked to read a set of instructions that describe a particular scenario, and you will then be asked to perform a simple task relating to that scenario. There will also be comprehension and attention checks. Participants who do not answer these checks correctly cannot be approved. In order to get credit for this HIT, you must read all the questions fully and answer honestly. You may only complete this HIT once. If you complete this HIT multiple times, you will be rejected.</p><p style = ""font-size:16px;"">This HIT is part of a MIT scientific research project. Your decision to complete this HIT is voluntary. There is no way for us to identify you. The only information we will have, in addition to your responses, is the time at which you completed the survey. The results of the research may be presented at scientific meetings or published in scientific journals. Pressing the ""Y"" key indicates that you are at least 18 years of age, and agree to complete this HIT voluntarily. Press the ""Y"" key to confirm your agreement and continue.</p></div>",y,"""","""",2022-01-29 00:46:03,174.67.203.139,"Mozilla/5.0 (Windows NT 10.0; Win64; x64) AppleWebKit/537.36 (KHTML, like Gecko) Chrome/94.0.4606.54 Safari/537.36 Edg/93.0.961.38",WebKit,Edge,93.0.961.38,Windows,10.0,667187245be6ec34b92381730ecb5f9e
2,1,"""","""","""","""","""",survey-text,3,42963,0.0-3.0,tmc4xgmf3,31196,"""","{""instructions1"":""Collect water from a water source and bring it back to the wooden storage buckets.""}",instructions,"""",2022-01-29 00:46:03,174.67.203.139,"Mozilla/5.0 (Windows NT 10.0; Win64; x64) AppleWebKit/537.36 (KHTML, like Gecko) Chrome/94.0.4606.54 Safari/537.36 Edg/93.0.961.38",WebKit,Edge,93.0.961.38,Windows,10.0,667187245be6ec34b92381730ecb5f9e
2,1,"""","""","""","""","""",survey-text,4,59139,0.0-4.0,tmc4xgmf3,16167,"""","{""instructions2"":""When all 8 people collect water and store it in a wooden storage bucket.""}",instructions,"""",2022-01-29 00:46:03,174.67.203.139,"Mozilla/5.0 (Windows NT 10.0; Win64; x64) AppleWebKit/537.36 (KHTML, like Gecko) Chrome/94.0.4606.54 Safari/537.36 Edg/93.0.961.38",WebKit,Edge,93.0.961.38,Windows,10.0,667187245be6ec34b92381730ecb5f9e
2,1,"""","""","""","""","""",survey-text,5,102408,0.0-5.0,tmc4xgmf3,43264,"""","{""instructions3"":""Decide whether they will definitely stay in line or take opportunities to leave the line and head directly for the water source.""}",instructions,"""",2022-01-29 00:46:03,174.67.203.139,"Mozilla/5.0 (Windows NT 10.0; Win64; x64) AppleWebKit/537.36 (KHTML, like Gecko) Chrome/94.0.4606.54 Safari/537.36 Edg/93.0.961.38",WebKit,Edge,93.0.961.38,Windows,10.0,667187245be6ec34b92381730ecb5f9e
2,1,"""","""","""","""","""",survey-text,6,127632,0.0-6.0,tmc4xgmf3,25222,"""","{""instructions4"":""They didn’t have to decide their strategy ahead of time.""}",instructions,"""",2022-01-29 00:46:03,174.67.203.139,"Mozilla/5.0 (Windows NT 10.0; Win64; x64) AppleWebKit/537.36 (KHTML, like Gecko) Chrome/94.0.4606.54 Safari/537.36 Edg/93.0.961.38",WebKit,Edge,93.0.961.38,Windows,10.0,667187245be6ec34b92381730ecb5f9e
2,1,"""","""","""","""","""",video-button-response,7,157183,0.0-7.0,tmc4xgmf3,29545,"[""video/no_line_1_1cut.mp4""]",1,no_1,video/no_line_1_1cut.mp4,2022-01-29 00:46:03,174.67.203.139,"Mozilla/5.0 (Windows NT 10.0; Win64; x64) AppleWebKit/537.36 (KHTML, like Gecko) Chrome/94.0.4606.54 Safari/537.36 Edg/93.0.961.38",WebKit,Edge,93.0.961.38,Windows,10.0,667187245be6ec34b92381730ecb5f9e
2,1,"""","""","""","""","""",video-button-response,8,187737,0.0-8.0,tmc4xgmf3,30549,"[""video/yes_line_7_0cut.mp4""]",1,yes_0,video/yes_line_7_0cut.mp4,2022-01-29 00:46:03,174.67.203.139,"Mozilla/5.0 (Windows NT 10.0; Win64; x64) AppleWebKit/537.36 (KHTML, like Gecko) Chrome/94.0.4606.54 Safari/537.36 Edg/93.0.961.38",WebKit,Edge,93.0.961.38,Windows,10.0,667187245be6ec34b92381730ecb5f9e
2,1,"""","""","""","""","""",video-button-response,9,223458,0.0-9.0,tmc4xgmf3,35716,"[""video/yes_line_7_1cut.mp4""]",0,yes_1,video/yes_line_7_1cut.mp4,2022-01-29 00:46:03,174.67.203.139,"Mozilla/5.0 (Windows NT 10.0; Win64; x64) AppleWebKit/537.36 (KHTML, like Gecko) Chrome/94.0.4606.54 Safari/537.36 Edg/93.0.961.38",WebKit,Edge,93.0.961.38,Windows,10.0,667187245be6ec34b92381730ecb5f9e
2,1,"""","""","""","""","""",video-button-response,10,267085,0.0-10.0,tmc4xgmf3,43622,"[""video/no_line_1_0cut.mp4""]",1,no_0,video/no_line_1_0cut.mp4,2022-01-29 00:46:03,174.67.203.139,"Mozilla/5.0 (Windows NT 10.0; Win64; x64) AppleWebKit/537.36 (KHTML, like Gecko) Chrome/94.0.4606.54 Safari/537.36 Edg/93.0.961.38",WebKit,Edge,93.0.961.38,Windows,10.0,667187245be6ec34b92381730ecb5f9e
2,1,"""","""","""","""","""",survey-html-form,11,278941,0.0-11.0,tmc4xgmf3,11844,"""","[{""name"":""understand"",""value"":""yes""},{""name"":""problems"",""value"":""none""},{""name"":""age"",""value"":""32""},{""name"":""gender"",""value"":""male""},{""name"":""comments"",""value"":""none""}]",debrief,"""",2022-01-29 00:46:03,174.67.203.139,"Mozilla/5.0 (Windows NT 10.0; Win64; x64) AppleWebKit/537.36 (KHTML, like Gecko) Chrome/94.0.4606.54 Safari/537.36 Edg/93.0.961.38",WebKit,Edge,93.0.961.38,Windows,10.0,667187245be6ec34b92381730ecb5f9e
2,1,"""","""","""","""","""",survey-text,12,289187,0.0-12.0,tmc4xgmf3,10239,"""","{""Q0"":""tmc4xgmf3""}","""","""",2022-01-29 00:46:03,174.67.203.139,"Mozilla/5.0 (Windows NT 10.0; Win64; x64) AppleWebKit/537.36 (KHTML, like Gecko) Chrome/94.0.4606.54 Safari/537.36 Edg/93.0.961.38",WebKit,Edge,93.0.961.38,Windows,10.0,667187245be6ec34b92381730ecb5f9e
19,1,true,false,[],[],[],preload,0,810,0.0-0.0,lvj8psxbz,"""","""","""","""","""",2022-01-29 00:56:05,108.73.95.238,"Mozilla/5.0 (Windows NT 6.3; Win64; x64) AppleWebKit/537.36 (KHTML, like Gecko) Chrome/97.0.4692.99 Safari/537.36",WebKit,Chrome,97.0.4692.99,Windows,6.3,667187245be6ec34b92381730ecb5f9e
19,1,"""","""","""","""","""",html-keyboard-response,1,3233,0.0-1.0,lvj8psxbz,2418,"<p style=""text-align:center;width:700px;""> Welcome to the experiment! This study takes most people around 10 minutes to complete. Please complete it in one sitting.</p>", ,"""","""",2022-01-29 00:56:05,108.73.95.238,"Mozilla/5.0 (Windows NT 6.3; Win64; x64) AppleWebKit/537.36 (KHTML, like Gecko) Chrome/97.0.4692.99 Safari/537.36",WebKit,Chrome,97.0.4692.99,Windows,6.3,667187245be6ec34b92381730ecb5f9e
19,1,"""","""","""","""","""",html-keyboard-response,2,13383,0.0-2.0,lvj8psxbz,10149,"<p style = ""font-size:16px;"">MIT Computational Cognitive Science Lab</p><h4>Press the 'y' key to consent.</h4><div style = ""background-color:#f2f2f2;""><h3>Informed Consent Form</h3><div style=""text-align:left;width:700px;""><p style = ""font-size:16px;"">In this HIT, you will be asked to read a set of instructions that describe a particular scenario, and you will then be asked to perform a simple task relating to that scenario. There will also be comprehension and attention checks. Participants who do not answer these checks correctly cannot be approved. In order to get credit for this HIT, you must read all the questions fully and answer honestly. You may only complete this HIT once. If you complete this HIT multiple times, you will be rejected.</p><p style = ""font-size:16px;"">This HIT is part of a MIT scientific research project. Your decision to complete this HIT is voluntary. There is no way for us to identify you. The only information we will have, in addition to your responses, is the time at which you completed the survey. The results of the research may be presented at scientific meetings or published in scientific journals. Pressing the ""Y"" key indicates that you are at least 18 years of age, and agree to complete this HIT voluntarily. Press the ""Y"" key to confirm your agreement and continue.</p></div>",y,"""","""",2022-01-29 00:56:05,108.73.95.238,"Mozilla/5.0 (Windows NT 6.3; Win64; x64) AppleWebKit/537.36 (KHTML, like Gecko) Chrome/97.0.4692.99 Safari/537.36",WebKit,Chrome,97.0.4692.99,Windows,6.3,667187245be6ec34b92381730ecb5f9e
19,1,"""","""","""","""","""",survey-text,3,40701,0.0-3.0,lvj8psxbz,27311,"""","{""instructions1"":""Everyone in the game is trying to collect water from a water source and bring it back to the wooden storage buckets. Each person needs to collect one bucket of water for each level.""}",instructions,"""",2022-01-29 00:56:05,108.73.95.238,"Mozilla/5.0 (Windows NT 6.3; Win64; x64) AppleWebKit/537.36 (KHTML, like Gecko) Chrome/97.0.4692.99 Safari/537.36",WebKit,Chrome,97.0.4692.99,Windows,6.3,667187245be6ec34b92381730ecb5f9e
19,1,"""","""","""","""","""",survey-text,4,75337,0.0-4.0,lvj8psxbz,34626,"""","{""instructions2"":""Each video will end when all 8 people collect water and store it in a wooden storage bucket.""}",instructions,"""",2022-01-29 00:56:05,108.73.95.238,"Mozilla/5.0 (Windows NT 6.3; Win64; x64) AppleWebKit/537.36 (KHTML, like Gecko) Chrome/97.0.4692.99 Safari/537.36",WebKit,Chrome,97.0.4692.99,Windows,6.3,667187245be6ec34b92381730ecb5f9e
19,1,"""","""","""","""","""",survey-text,5,174887,0.0-5.0,lvj8psxbz,99542,"""","{""instructions3"":""Players have to make a decision (without talking to each other) about how they will behave in that scene .Each player has to decide whether they will definitely stay in line or take opportunities to leave the line and head directly for the water source.""}",instructions,"""",2022-01-29 00:56:05,108.73.95.238,"Mozilla/5.0 (Windows NT 6.3; Win64; x64) AppleWebKit/537.36 (KHTML, like Gecko) Chrome/97.0.4692.99 Safari/537.36",WebKit,Chrome,97.0.4692.99,Windows,6.3,667187245be6ec34b92381730ecb5f9e
19,1,"""","""","""","""","""",survey-text,6,272181,0.0-6.0,lvj8psxbz,97289,"""","{""instructions4"":""This is the person whose actions you will judge as morally acceptable or morally unacceptable.""}",instructions,"""",2022-01-29 00:56:05,108.73.95.238,"Mozilla/5.0 (Windows NT 6.3; Win64; x64) AppleWebKit/537.36 (KHTML, like Gecko) Chrome/97.0.4692.99 Safari/537.36",WebKit,Chrome,97.0.4692.99,Windows,6.3,667187245be6ec34b92381730ecb5f9e
19,1,"""","""","""","""","""",video-button-response,7,306300,0.0-7.0,lvj8psxbz,34113,"[""video/yes_line_7_0cut.mp4""]",1,yes_0,video/yes_line_7_0cut.mp4,2022-01-29 00:56:05,108.73.95.238,"Mozilla/5.0 (Windows NT 6.3; Win64; x64) AppleWebKit/537.36 (KHTML, like Gecko) Chrome/97.0.4692.99 Safari/537.36",WebKit,Chrome,97.0.4692.99,Windows,6.3,667187245be6ec34b92381730ecb5f9e
19,1,"""","""","""","""","""",video-button-response,8,337191,0.0-8.0,lvj8psxbz,30888,"[""video/no_line_1_0cut.mp4""]",1,no_0,video/no_line_1_0cut.mp4,2022-01-29 00:56:05,108.73.95.238,"Mozilla/5.0 (Windows NT 6.3; Win64; x64) AppleWebKit/537.36 (KHTML, like Gecko) Chrome/97.0.4692.99 Safari/537.36",WebKit,Chrome,97.0.4692.99,Windows,6.3,667187245be6ec34b92381730ecb5f9e
19,1,"""","""","""","""","""",video-button-response,9,370807,0.0-9.0,lvj8psxbz,33608,"[""video/yes_line_7_1cut.mp4""]",0,yes_1,video/yes_line_7_1cut.mp4,2022-01-29 00:56:05,108.73.95.238,"Mozilla/5.0 (Windows NT 6.3; Win64; x64) AppleWebKit/537.36 (KHTML, like Gecko) Chrome/97.0.4692.99 Safari/537.36",WebKit,Chrome,97.0.4692.99,Windows,6.3,667187245be6ec34b92381730ecb5f9e
19,1,"""","""","""","""","""",video-button-response,10,403090,0.0-10.0,lvj8psxbz,32281,"[""video/no_line_1_1cut.mp4""]",1,no_1,video/no_line_1_1cut.mp4,2022-01-29 00:56:05,108.73.95.238,"Mozilla/5.0 (Windows NT 6.3; Win64; x64) AppleWebKit/537.36 (KHTML, like Gecko) Chrome/97.0.4692.99 Safari/537.36",WebKit,Chrome,97.0.4692.99,Windows,6.3,667187245be6ec34b92381730ecb5f9e
19,1,"""","""","""","""","""",survey-html-form,11,415702,0.0-11.0,lvj8psxbz,12609,"""","[{""name"":""understand"",""value"":""yes""},{""name"":""problems"",""value"":""Bo""},{""name"":""age"",""value"":""47""},{""name"":""gender"",""value"":""male""},{""name"":""comments"",""value"":""A3FGT6EU39C6S4""}]",debrief,"""",2022-01-29 00:56:05,108.73.95.238,"Mozilla/5.0 (Windows NT 6.3; Win64; x64) AppleWebKit/537.36 (KHTML, like Gecko) Chrome/97.0.4692.99 Safari/537.36",WebKit,Chrome,97.0.4692.99,Windows,6.3,667187245be6ec34b92381730ecb5f9e
19,1,"""","""","""","""","""",survey-text,12,431302,0.0-12.0,lvj8psxbz,15595,"""","{""Q0"":""lvj8psxbz""}","""","""",2022-01-29 00:56:05,108.73.95.238,"Mozilla/5.0 (Windows NT 6.3; Win64; x64) AppleWebKit/537.36 (KHTML, like Gecko) Chrome/97.0.4692.99 Safari/537.36",WebKit,Chrome,97.0.4692.99,Windows,6.3,667187245be6ec34b92381730ecb5f9e
14,1,true,false,[],[],[],preload,0,692,0.0-0.0,5uufhvv91,"""","""","""","""","""",2022-01-29 00:51:12,173.24.227.204,"Mozilla/5.0 (Windows NT 10.0; Win64; x64) AppleWebKit/537.36 (KHTML, like Gecko) Chrome/97.0.4692.99 Safari/537.36",WebKit,Chrome,97.0.4692.99,Windows,10.0,667187245be6ec34b92381730ecb5f9e
14,1,"""","""","""","""","""",html-keyboard-response,1,4336,0.0-1.0,5uufhvv91,3642,"<p style=""text-align:center;width:700px;""> Welcome to the experiment! This study takes most people around 10 minutes to complete. Please complete it in one sitting.</p>", ,"""","""",2022-01-29 00:51:12,173.24.227.204,"Mozilla/5.0 (Windows NT 10.0; Win64; x64) AppleWebKit/537.36 (KHTML, like Gecko) Chrome/97.0.4692.99 Safari/537.36",WebKit,Chrome,97.0.4692.99,Windows,10.0,667187245be6ec34b92381730ecb5f9e
14,1,"""","""","""","""","""",html-keyboard-response,2,5976,0.0-2.0,5uufhvv91,1639,"<p style = ""font-size:16px;"">MIT Computational Cognitive Science Lab</p><h4>Press the 'y' key to consent.</h4><div style = ""background-color:#f2f2f2;""><h3>Informed Consent Form</h3><div style=""text-align:left;width:700px;""><p style = ""font-size:16px;"">In this HIT, you will be asked to read a set of instructions that describe a particular scenario, and you will then be asked to perform a simple task relating to that scenario. There will also be comprehension and attention checks. Participants who do not answer these checks correctly cannot be approved. In order to get credit for this HIT, you must read all the questions fully and answer honestly. You may only complete this HIT once. If you complete this HIT multiple times, you will be rejected.</p><p style = ""font-size:16px;"">This HIT is part of a MIT scientific research project. Your decision to complete this HIT is voluntary. There is no way for us to identify you. The only information we will have, in addition to your responses, is the time at which you completed the survey. The results of the research may be presented at scientific meetings or published in scientific journals. Pressing the ""Y"" key indicates that you are at least 18 years of age, and agree to complete this HIT voluntarily. Press the ""Y"" key to confirm your agreement and continue.</p></div>",y,"""","""",2022-01-29 00:51:12,173.24.227.204,"Mozilla/5.0 (Windows NT 10.0; Win64; x64) AppleWebKit/537.36 (KHTML, like Gecko) Chrome/97.0.4692.99 Safari/537.36",WebKit,Chrome,97.0.4692.99,Windows,10.0,667187245be6ec34b92381730ecb5f9e
14,1,"""","""","""","""","""",survey-text,3,14938,0.0-3.0,5uufhvv91,8957,"""","{""instructions1"":"" collect water from a water source and bring it back to the wooden storage buckets.""}",instructions,"""",2022-01-29 00:51:12,173.24.227.204,"Mozilla/5.0 (Windows NT 10.0; Win64; x64) AppleWebKit/537.36 (KHTML, like Gecko) Chrome/97.0.4692.99 Safari/537.36",WebKit,Chrome,97.0.4692.99,Windows,10.0,667187245be6ec34b92381730ecb5f9e
14,1,"""","""","""","""","""",survey-text,4,25683,0.0-4.0,5uufhvv91,10739,"""","{""instructions2"":""when all 8 people collect water and store it in a wooden storage bucket.""}",instructions,"""",2022-01-29 00:51:12,173.24.227.204,"Mozilla/5.0 (Windows NT 10.0; Win64; x64) AppleWebKit/537.36 (KHTML, like Gecko) Chrome/97.0.4692.99 Safari/537.36",WebKit,Chrome,97.0.4692.99,Windows,10.0,667187245be6ec34b92381730ecb5f9e
14,1,"""","""","""","""","""",survey-text,5,53574,0.0-5.0,5uufhvv91,27888,"""","{""instructions3"":""whether they will definitely stay in line or take opportunities to leave the line and head directly for the water source.""}",instructions,"""",2022-01-29 00:51:12,173.24.227.204,"Mozilla/5.0 (Windows NT 10.0; Win64; x64) AppleWebKit/537.36 (KHTML, like Gecko) Chrome/97.0.4692.99 Safari/537.36",WebKit,Chrome,97.0.4692.99,Windows,10.0,667187245be6ec34b92381730ecb5f9e
14,1,"""","""","""","""","""",survey-text,6,67823,0.0-6.0,5uufhvv91,14248,"""","{""instructions4"":""This is the only person who didn’t have to decide their strategy ahead of time.""}",instructions,"""",2022-01-29 00:51:12,173.24.227.204,"Mozilla/5.0 (Windows NT 10.0; Win64; x64) AppleWebKit/537.36 (KHTML, like Gecko) Chrome/97.0.4692.99 Safari/537.36",WebKit,Chrome,97.0.4692.99,Windows,10.0,667187245be6ec34b92381730ecb5f9e
14,1,"""","""","""","""","""",video-button-response,7,97811,0.0-7.0,5uufhvv91,29984,"[""video/no_line_1_0cut.mp4""]",1,no_0,video/no_line_1_0cut.mp4,2022-01-29 00:51:12,173.24.227.204,"Mozilla/5.0 (Windows NT 10.0; Win64; x64) AppleWebKit/537.36 (KHTML, like Gecko) Chrome/97.0.4692.99 Safari/537.36",WebKit,Chrome,97.0.4692.99,Windows,10.0,667187245be6ec34b92381730ecb5f9e
14,1,"""","""","""","""","""",video-button-response,8,127845,0.0-8.0,5uufhvv91,30034,"[""video/yes_line_7_1cut.mp4""]",0,yes_1,video/yes_line_7_1cut.mp4,2022-01-29 00:51:12,173.24.227.204,"Mozilla/5.0 (Windows NT 10.0; Win64; x64) AppleWebKit/537.36 (KHTML, like Gecko) Chrome/97.0.4692.99 Safari/537.36",WebKit,Chrome,97.0.4692.99,Windows,10.0,667187245be6ec34b92381730ecb5f9e
14,1,"""","""","""","""","""",video-button-response,9,157704,0.0-9.0,5uufhvv91,29857,"[""video/yes_line_7_0cut.mp4""]",1,yes_0,video/yes_line_7_0cut.mp4,2022-01-29 00:51:12,173.24.227.204,"Mozilla/5.0 (Windows NT 10.0; Win64; x64) AppleWebKit/537.36 (KHTML, like Gecko) Chrome/97.0.4692.99 Safari/537.36",WebKit,Chrome,97.0.4692.99,Windows,10.0,667187245be6ec34b92381730ecb5f9e
14,1,"""","""","""","""","""",video-button-response,10,187684,0.0-10.0,5uufhvv91,29978,"[""video/no_line_1_1cut.mp4""]",1,no_1,video/no_line_1_1cut.mp4,2022-01-29 00:51:12,173.24.227.204,"Mozilla/5.0 (Windows NT 10.0; Win64; x64) AppleWebKit/537.36 (KHTML, like Gecko) Chrome/97.0.4692.99 Safari/537.36",WebKit,Chrome,97.0.4692.99,Windows,10.0,667187245be6ec34b92381730ecb5f9e
14,1,"""","""","""","""","""",survey-html-form,11,196861,0.0-11.0,5uufhvv91,9175,"""","[{""name"":""understand"",""value"":""yes""},{""name"":""problems"",""value"":""No""},{""name"":""age"",""value"":""40""},{""name"":""gender"",""value"":""male""},{""name"":""comments"",""value"":""}]",debrief,"""",2022-01-29 00:51:12,173.24.227.204,"Mozilla/5.0 (Windows NT 10.0; Win64; x64) AppleWebKit/537.36 (KHTML, like Gecko) Chrome/97.0.4692.99 Safari/537.36",WebKit,Chrome,97.0.4692.99,Windows,10.0,667187245be6ec34b92381730ecb5f9e
14,1,"""","""","""","""","""",survey-text,12,201573,0.0-12.0,5uufhvv91,4708,"""","{""Q0"":""5uufhvv91""}","""","""",2022-01-29 00:51:12,173.24.227.204,"Mozilla/5.0 (Windows NT 10.0; Win64; x64) AppleWebKit/537.36 (KHTML, like Gecko) Chrome/97.0.4692.99 Safari/537.36",WebKit,Chrome,97.0.4692.99,Windows,10.0,667187245be6ec34b92381730ecb5f9e
17,1,true,false,[],[],[],preload,0,665,0.0-0.0,mqhc38c42,"""","""","""","""","""",2022-01-29 00:53:25,71.230.6.27,"Mozilla/5.0 (Windows NT 10.0; Win64; x64) AppleWebKit/537.36 (KHTML, like Gecko) Chrome/94.0.4606.54 Safari/537.36 Edg/93.0.961.38",WebKit,Edge,93.0.961.38,Windows,10.0,667187245be6ec34b92381730ecb5f9e
17,1,"""","""","""","""","""",html-keyboard-response,1,6268,0.0-1.0,mqhc38c42,5600,"<p style=""text-align:center;width:700px;""> Welcome to the experiment! This study takes most people around 10 minutes to complete. Please complete it in one sitting.</p>", ,"""","""",2022-01-29 00:53:25,71.230.6.27,"Mozilla/5.0 (Windows NT 10.0; Win64; x64) AppleWebKit/537.36 (KHTML, like Gecko) Chrome/94.0.4606.54 Safari/537.36 Edg/93.0.961.38",WebKit,Edge,93.0.961.38,Windows,10.0,667187245be6ec34b92381730ecb5f9e
17,1,"""","""","""","""","""",html-keyboard-response,2,10246,0.0-2.0,mqhc38c42,3977,"<p style = ""font-size:16px;"">MIT Computational Cognitive Science Lab</p><h4>Press the 'y' key to consent.</h4><div style = ""background-color:#f2f2f2;""><h3>Informed Consent Form</h3><div style=""text-align:left;width:700px;""><p style = ""font-size:16px;"">In this HIT, you will be asked to read a set of instructions that describe a particular scenario, and you will then be asked to perform a simple task relating to that scenario. There will also be comprehension and attention checks. Participants who do not answer these checks correctly cannot be approved. In order to get credit for this HIT, you must read all the questions fully and answer honestly. You may only complete this HIT once. If you complete this HIT multiple times, you will be rejected.</p><p style = ""font-size:16px;"">This HIT is part of a MIT scientific research project. Your decision to complete this HIT is voluntary. There is no way for us to identify you. The only information we will have, in addition to your responses, is the time at which you completed the survey. The results of the research may be presented at scientific meetings or published in scientific journals. Pressing the ""Y"" key indicates that you are at least 18 years of age, and agree to complete this HIT voluntarily. Press the ""Y"" key to confirm your agreement and continue.</p></div>",y,"""","""",2022-01-29 00:53:25,71.230.6.27,"Mozilla/5.0 (Windows NT 10.0; Win64; x64) AppleWebKit/537.36 (KHTML, like Gecko) Chrome/94.0.4606.54 Safari/537.36 Edg/93.0.961.38",WebKit,Edge,93.0.961.38,Windows,10.0,667187245be6ec34b92381730ecb5f9e
17,1,"""","""","""","""","""",survey-text,3,60219,0.0-3.0,mqhc38c42,49965,"""","{""instructions1"":""get water from a source""}",instructions,"""",2022-01-29 00:53:25,71.230.6.27,"Mozilla/5.0 (Windows NT 10.0; Win64; x64) AppleWebKit/537.36 (KHTML, like Gecko) Chrome/94.0.4606.54 Safari/537.36 Edg/93.0.961.38",WebKit,Edge,93.0.961.38,Windows,10.0,667187245be6ec34b92381730ecb5f9e
17,1,"""","""","""","""","""",survey-text,4,120236,0.0-4.0,mqhc38c42,60007,"""","{""instructions2"":""when all people collect water""}",instructions,"""",2022-01-29 00:53:25,71.230.6.27,"Mozilla/5.0 (Windows NT 10.0; Win64; x64) AppleWebKit/537.36 (KHTML, like Gecko) Chrome/94.0.4606.54 Safari/537.36 Edg/93.0.961.38",WebKit,Edge,93.0.961.38,Windows,10.0,667187245be6ec34b92381730ecb5f9e
17,1,"""","""","""","""","""",survey-text,5,406195,0.0-5.0,mqhc38c42,285953,"""","{""instructions3"":""whether they stay in line and wait their turn or move out of turn""}",instructions,"""",2022-01-29 00:53:25,71.230.6.27,"Mozilla/5.0 (Windows NT 10.0; Win64; x64) AppleWebKit/537.36 (KHTML, like Gecko) Chrome/94.0.4606.54 Safari/537.36 Edg/93.0.961.38",WebKit,Edge,93.0.961.38,Windows,10.0,667187245be6ec34b92381730ecb5f9e
17,1,"""","""","""","""","""",survey-text,6,477087,0.0-6.0,mqhc38c42,70890,"""","{""instructions4"":""the person won't have to make a choice to move ahead of time""}",instructions,"""",2022-01-29 00:53:25,71.230.6.27,"Mozilla/5.0 (Windows NT 10.0; Win64; x64) AppleWebKit/537.36 (KHTML, like Gecko) Chrome/94.0.4606.54 Safari/537.36 Edg/93.0.961.38",WebKit,Edge,93.0.961.38,Windows,10.0,667187245be6ec34b92381730ecb5f9e
17,1,"""","""","""","""","""",video-button-response,7,543332,0.0-7.0,mqhc38c42,66240,"[""video/yes_line_7_0cut.mp4""]",1,yes_0,video/yes_line_7_0cut.mp4,2022-01-29 00:53:25,71.230.6.27,"Mozilla/5.0 (Windows NT 10.0; Win64; x64) AppleWebKit/537.36 (KHTML, like Gecko) Chrome/94.0.4606.54 Safari/537.36 Edg/93.0.961.38",WebKit,Edge,93.0.961.38,Windows,10.0,667187245be6ec34b92381730ecb5f9e
17,1,"""","""","""","""","""",video-button-response,8,590045,0.0-8.0,mqhc38c42,46710,"[""video/no_line_1_1cut.mp4""]",1,no_1,video/no_line_1_1cut.mp4,2022-01-29 00:53:25,71.230.6.27,"Mozilla/5.0 (Windows NT 10.0; Win64; x64) AppleWebKit/537.36 (KHTML, like Gecko) Chrome/94.0.4606.54 Safari/537.36 Edg/93.0.961.38",WebKit,Edge,93.0.961.38,Windows,10.0,667187245be6ec34b92381730ecb5f9e
17,1,"""","""","""","""","""",video-button-response,9,619914,0.0-9.0,mqhc38c42,29865,"[""video/no_line_1_0cut.mp4""]",1,no_0,video/no_line_1_0cut.mp4,2022-01-29 00:53:25,71.230.6.27,"Mozilla/5.0 (Windows NT 10.0; Win64; x64) AppleWebKit/537.36 (KHTML, like Gecko) Chrome/94.0.4606.54 Safari/537.36 Edg/93.0.961.38",WebKit,Edge,93.0.961.38,Windows,10.0,667187245be6ec34b92381730ecb5f9e
17,1,"""","""","""","""","""",video-button-response,10,650921,0.0-10.0,mqhc38c42,31004,"[""video/yes_line_7_1cut.mp4""]",0,yes_1,video/yes_line_7_1cut.mp4,2022-01-29 00:53:25,71.230.6.27,"Mozilla/5.0 (Windows NT 10.0; Win64; x64) AppleWebKit/537.36 (KHTML, like Gecko) Chrome/94.0.4606.54 Safari/537.36 Edg/93.0.961.38",WebKit,Edge,93.0.961.38,Windows,10.0,667187245be6ec34b92381730ecb5f9e
17,1,"""","""","""","""","""",survey-html-form,11,668037,0.0-11.0,mqhc38c42,17112,"""","[{""name"":""understand"",""value"":""yes""},{""name"":""problems"",""value"":""no""},{""name"":""age"",""value"":""38""},{""name"":""gender"",""value"":""male""},{""name"":""comments"",""value"":""}]",debrief,"""",2022-01-29 00:53:25,71.230.6.27,"Mozilla/5.0 (Windows NT 10.0; Win64; x64) AppleWebKit/537.36 (KHTML, like Gecko) Chrome/94.0.4606.54 Safari/537.36 Edg/93.0.961.38",WebKit,Edge,93.0.961.38,Windows,10.0,667187245be6ec34b92381730ecb5f9e
17,1,"""","""","""","""","""",survey-text,12,677899,0.0-12.0,mqhc38c42,9857,"""","{""Q0"":""mqhc38c42 ""}","""","""",2022-01-29 00:53:25,71.230.6.27,"Mozilla/5.0 (Windows NT 10.0; Win64; x64) AppleWebKit/537.36 (KHTML, like Gecko) Chrome/94.0.4606.54 Safari/537.36 Edg/93.0.961.38",WebKit,Edge,93.0.961.38,Windows,10.0,667187245be6ec34b92381730ecb5f9e
27,1,true,false,[],[],[],preload,0,1126,0.0-0.0,30zrqguf1,"""","""","""","""","""",2022-01-29 01:08:03,108.52.206.32,"Mozilla/5.0 (Windows NT 10.0; Win64; x64) AppleWebKit/537.36 (KHTML, like Gecko) Chrome/97.0.4692.99 Safari/537.36",WebKit,Chrome,97.0.4692.99,Windows,10.0,667187245be6ec34b92381730ecb5f9e
27,1,"""","""","""","""","""",html-keyboard-response,1,10702,0.0-1.0,30zrqguf1,9569,"<p style=""text-align:center;width:700px;""> Welcome to the experiment! This study takes most people around 10 minutes to complete. Please complete it in one sitting.</p>", ,"""","""",2022-01-29 01:08:03,108.52.206.32,"Mozilla/5.0 (Windows NT 10.0; Win64; x64) AppleWebKit/537.36 (KHTML, like Gecko) Chrome/97.0.4692.99 Safari/537.36",WebKit,Chrome,97.0.4692.99,Windows,10.0,667187245be6ec34b92381730ecb5f9e
27,1,"""","""","""","""","""",html-keyboard-response,2,15643,0.0-2.0,30zrqguf1,4940,"<p style = ""font-size:16px;"">MIT Computational Cognitive Science Lab</p><h4>Press the 'y' key to consent.</h4><div style = ""background-color:#f2f2f2;""><h3>Informed Consent Form</h3><div style=""text-align:left;width:700px;""><p style = ""font-size:16px;"">In this HIT, you will be asked to read a set of instructions that describe a particular scenario, and you will then be asked to perform a simple task relating to that scenario. There will also be comprehension and attention checks. Participants who do not answer these checks correctly cannot be approved. In order to get credit for this HIT, you must read all the questions fully and answer honestly. You may only complete this HIT once. If you complete this HIT multiple times, you will be rejected.</p><p style = ""font-size:16px;"">This HIT is part of a MIT scientific research project. Your decision to complete this HIT is voluntary. There is no way for us to identify you. The only information we will have, in addition to your responses, is the time at which you completed the survey. The results of the research may be presented at scientific meetings or published in scientific journals. Pressing the ""Y"" key indicates that you are at least 18 years of age, and agree to complete this HIT voluntarily. Press the ""Y"" key to confirm your agreement and continue.</p></div>",y,"""","""",2022-01-29 01:08:03,108.52.206.32,"Mozilla/5.0 (Windows NT 10.0; Win64; x64) AppleWebKit/537.36 (KHTML, like Gecko) Chrome/97.0.4692.99 Safari/537.36",WebKit,Chrome,97.0.4692.99,Windows,10.0,667187245be6ec34b92381730ecb5f9e
27,1,"""","""","""","""","""",survey-text,3,52086,0.0-3.0,30zrqguf1,36427,"""","{""instructions1"":""collect water from a water source and bring it back to wooden storage buckets""}",instructions,"""",2022-01-29 01:08:03,108.52.206.32,"Mozilla/5.0 (Windows NT 10.0; Win64; x64) AppleWebKit/537.36 (KHTML, like Gecko) Chrome/97.0.4692.99 Safari/537.36",WebKit,Chrome,97.0.4692.99,Windows,10.0,667187245be6ec34b92381730ecb5f9e
27,1,"""","""","""","""","""",survey-text,4,86877,0.0-4.0,30zrqguf1,34779,"""","{""instructions2"":""when 8 people collect water and store it in a wooden storage bucket""}",instructions,"""",2022-01-29 01:08:03,108.52.206.32,"Mozilla/5.0 (Windows NT 10.0; Win64; x64) AppleWebKit/537.36 (KHTML, like Gecko) Chrome/97.0.4692.99 Safari/537.36",WebKit,Chrome,97.0.4692.99,Windows,10.0,667187245be6ec34b92381730ecb5f9e
27,1,"""","""","""","""","""",survey-text,5,125605,0.0-5.0,30zrqguf1,38719,"""","{""instructions3"":""whether to definitely stay in line or leave the line""}",instructions,"""",2022-01-29 01:08:03,108.52.206.32,"Mozilla/5.0 (Windows NT 10.0; Win64; x64) AppleWebKit/537.36 (KHTML, like Gecko) Chrome/97.0.4692.99 Safari/537.36",WebKit,Chrome,97.0.4692.99,Windows,10.0,667187245be6ec34b92381730ecb5f9e
27,1,"""","""","""","""","""",survey-text,6,161093,0.0-6.0,30zrqguf1,35485,"""","{""instructions4"":""They didn't have to decide their strategy ahead of time""}",instructions,"""",2022-01-29 01:08:03,108.52.206.32,"Mozilla/5.0 (Windows NT 10.0; Win64; x64) AppleWebKit/537.36 (KHTML, like Gecko) Chrome/97.0.4692.99 Safari/537.36",WebKit,Chrome,97.0.4692.99,Windows,10.0,667187245be6ec34b92381730ecb5f9e
27,1,"""","""","""","""","""",video-button-response,7,193462,0.0-7.0,30zrqguf1,32361,"[""video/no_line_1_0cut.mp4""]",0,no_0,video/no_line_1_0cut.mp4,2022-01-29 01:08:03,108.52.206.32,"Mozilla/5.0 (Windows NT 10.0; Win64; x64) AppleWebKit/537.36 (KHTML, like Gecko) Chrome/97.0.4692.99 Safari/537.36",WebKit,Chrome,97.0.4692.99,Windows,10.0,667187245be6ec34b92381730ecb5f9e
27,1,"""","""","""","""","""",video-button-response,8,223853,0.0-8.0,30zrqguf1,30388,"[""video/yes_line_7_1cut.mp4""]",0,yes_1,video/yes_line_7_1cut.mp4,2022-01-29 01:08:03,108.52.206.32,"Mozilla/5.0 (Windows NT 10.0; Win64; x64) AppleWebKit/537.36 (KHTML, like Gecko) Chrome/97.0.4692.99 Safari/537.36",WebKit,Chrome,97.0.4692.99,Windows,10.0,667187245be6ec34b92381730ecb5f9e
27,1,"""","""","""","""","""",video-button-response,9,253790,0.0-9.0,30zrqguf1,29928,"[""video/no_line_1_1cut.mp4""]",0,no_1,video/no_line_1_1cut.mp4,2022-01-29 01:08:03,108.52.206.32,"Mozilla/5.0 (Windows NT 10.0; Win64; x64) AppleWebKit/537.36 (KHTML, like Gecko) Chrome/97.0.4692.99 Safari/537.36",WebKit,Chrome,97.0.4692.99,Windows,10.0,667187245be6ec34b92381730ecb5f9e
27,1,"""","""","""","""","""",video-button-response,10,298037,0.0-10.0,30zrqguf1,44242,"[""video/yes_line_7_0cut.mp4""]",0,yes_0,video/yes_line_7_0cut.mp4,2022-01-29 01:08:03,108.52.206.32,"Mozilla/5.0 (Windows NT 10.0; Win64; x64) AppleWebKit/537.36 (KHTML, like Gecko) Chrome/97.0.4692.99 Safari/537.36",WebKit,Chrome,97.0.4692.99,Windows,10.0,667187245be6ec34b92381730ecb5f9e
27,1,"""","""","""","""","""",survey-html-form,11,322046,0.0-11.0,30zrqguf1,24005,"""","[{""name"":""understand"",""value"":""yes""},{""name"":""problems"",""value"":""none""},{""name"":""age"",""value"":""52""},{""name"":""gender"",""value"":""female""},{""name"":""comments"",""value"":""}]",debrief,"""",2022-01-29 01:08:03,108.52.206.32,"Mozilla/5.0 (Windows NT 10.0; Win64; x64) AppleWebKit/537.36 (KHTML, like Gecko) Chrome/97.0.4692.99 Safari/537.36",WebKit,Chrome,97.0.4692.99,Windows,10.0,667187245be6ec34b92381730ecb5f9e
27,1,"""","""","""","""","""",survey-text,12,336598,0.0-12.0,30zrqguf1,14540,"""","{""Q0"":""30zrqguf1""}","""","""",2022-01-29 01:08:03,108.52.206.32,"Mozilla/5.0 (Windows NT 10.0; Win64; x64) AppleWebKit/537.36 (KHTML, like Gecko) Chrome/97.0.4692.99 Safari/537.36",WebKit,Chrome,97.0.4692.99,Windows,10.0,667187245be6ec34b92381730ecb5f9e
20,1,true,false,[],[],[],preload,0,1104,0.0-0.0,sh23w66pd,"""","""","""","""","""",2022-01-29 00:59:22,89.46.114.203,"Mozilla/5.0 (Windows NT 10.0; Win64; x64) AppleWebKit/537.36 (KHTML, like Gecko) Chrome/97.0.4692.99 Safari/537.36",WebKit,Chrome,97.0.4692.99,Windows,10.0,667187245be6ec34b92381730ecb5f9e
20,1,"""","""","""","""","""",html-keyboard-response,1,6414,0.0-1.0,sh23w66pd,5293,"<p style=""text-align:center;width:700px;""> Welcome to the experiment! This study takes most people around 10 minutes to complete. Please complete it in one sitting.</p>", ,"""","""",2022-01-29 00:59:22,89.46.114.203,"Mozilla/5.0 (Windows NT 10.0; Win64; x64) AppleWebKit/537.36 (KHTML, like Gecko) Chrome/97.0.4692.99 Safari/537.36",WebKit,Chrome,97.0.4692.99,Windows,10.0,667187245be6ec34b92381730ecb5f9e
20,1,"""","""","""","""","""",html-keyboard-response,2,8975,0.0-2.0,sh23w66pd,2558,"<p style = ""font-size:16px;"">MIT Computational Cognitive Science Lab</p><h4>Press the 'y' key to consent.</h4><div style = ""background-color:#f2f2f2;""><h3>Informed Consent Form</h3><div style=""text-align:left;width:700px;""><p style = ""font-size:16px;"">In this HIT, you will be asked to read a set of instructions that describe a particular scenario, and you will then be asked to perform a simple task relating to that scenario. There will also be comprehension and attention checks. Participants who do not answer these checks correctly cannot be approved. In order to get credit for this HIT, you must read all the questions fully and answer honestly. You may only complete this HIT once. If you complete this HIT multiple times, you will be rejected.</p><p style = ""font-size:16px;"">This HIT is part of a MIT scientific research project. Your decision to complete this HIT is voluntary. There is no way for us to identify you. The only information we will have, in addition to your responses, is the time at which you completed the survey. The results of the research may be presented at scientific meetings or published in scientific journals. Pressing the ""Y"" key indicates that you are at least 18 years of age, and agree to complete this HIT voluntarily. Press the ""Y"" key to confirm your agreement and continue.</p></div>",y,"""","""",2022-01-29 00:59:22,89.46.114.203,"Mozilla/5.0 (Windows NT 10.0; Win64; x64) AppleWebKit/537.36 (KHTML, like Gecko) Chrome/97.0.4692.99 Safari/537.36",WebKit,Chrome,97.0.4692.99,Windows,10.0,667187245be6ec34b92381730ecb5f9e
20,1,"""","""","""","""","""",survey-text,3,67914,0.0-3.0,sh23w66pd,58911,"""","{""instructions1"":""Every person needs to collect one bucket of water everly level and the faster a person collects the bucket of water the more points they will get""}",instructions,"""",2022-01-29 00:59:22,89.46.114.203,"Mozilla/5.0 (Windows NT 10.0; Win64; x64) AppleWebKit/537.36 (KHTML, like Gecko) Chrome/97.0.4692.99 Safari/537.36",WebKit,Chrome,97.0.4692.99,Windows,10.0,667187245be6ec34b92381730ecb5f9e
20,1,"""","""","""","""","""",survey-text,4,131878,0.0-4.0,sh23w66pd,63917,"""","{""instructions2"":""After all 8 people collect their water and store it in a wooden storage bucket""}",instructions,"""",2022-01-29 00:59:22,89.46.114.203,"Mozilla/5.0 (Windows NT 10.0; Win64; x64) AppleWebKit/537.36 (KHTML, like Gecko) Chrome/97.0.4692.99 Safari/537.36",WebKit,Chrome,97.0.4692.99,Windows,10.0,667187245be6ec34b92381730ecb5f9e
20,1,"""","""","""","""","""",survey-text,5,240317,0.0-5.0,sh23w66pd,108385,"""","{""instructions3"":""The players have to decide whether they will definitely stay in line or take opportunities to leave the line and head straight to the water source""}",instructions,"""",2022-01-29 00:59:22,89.46.114.203,"Mozilla/5.0 (Windows NT 10.0; Win64; x64) AppleWebKit/537.36 (KHTML, like Gecko) Chrome/97.0.4692.99 Safari/537.36",WebKit,Chrome,97.0.4692.99,Windows,10.0,667187245be6ec34b92381730ecb5f9e
20,1,"""","""","""","""","""",survey-text,6,293874,0.0-6.0,sh23w66pd,53548,"""","{""instructions4"":""they are the only person who did not have to decide their strategy ahead of time""}",instructions,"""",2022-01-29 00:59:22,89.46.114.203,"Mozilla/5.0 (Windows NT 10.0; Win64; x64) AppleWebKit/537.36 (KHTML, like Gecko) Chrome/97.0.4692.99 Safari/537.36",WebKit,Chrome,97.0.4692.99,Windows,10.0,667187245be6ec34b92381730ecb5f9e
20,1,"""","""","""","""","""",video-button-response,7,324748,0.0-7.0,sh23w66pd,30847,"[""video/yes_line_7_1cut.mp4""]",0,yes_1,video/yes_line_7_1cut.mp4,2022-01-29 00:59:22,89.46.114.203,"Mozilla/5.0 (Windows NT 10.0; Win64; x64) AppleWebKit/537.36 (KHTML, like Gecko) Chrome/97.0.4692.99 Safari/537.36",WebKit,Chrome,97.0.4692.99,Windows,10.0,667187245be6ec34b92381730ecb5f9e
20,1,"""","""","""","""","""",video-button-response,8,355387,0.0-8.0,sh23w66pd,30634,"[""video/no_line_1_1cut.mp4""]",0,no_1,video/no_line_1_1cut.mp4,2022-01-29 00:59:22,89.46.114.203,"Mozilla/5.0 (Windows NT 10.0; Win64; x64) AppleWebKit/537.36 (KHTML, like Gecko) Chrome/97.0.4692.99 Safari/537.36",WebKit,Chrome,97.0.4692.99,Windows,10.0,667187245be6ec34b92381730ecb5f9e
20,1,"""","""","""","""","""",video-button-response,9,385349,0.0-9.0,sh23w66pd,29947,"[""video/yes_line_7_0cut.mp4""]",1,yes_0,video/yes_line_7_0cut.mp4,2022-01-29 00:59:22,89.46.114.203,"Mozilla/5.0 (Windows NT 10.0; Win64; x64) AppleWebKit/537.36 (KHTML, like Gecko) Chrome/97.0.4692.99 Safari/537.36",WebKit,Chrome,97.0.4692.99,Windows,10.0,667187245be6ec34b92381730ecb5f9e
20,1,"""","""","""","""","""",video-button-response,10,415153,0.0-10.0,sh23w66pd,29788,"[""video/no_line_1_0cut.mp4""]",1,no_0,video/no_line_1_0cut.mp4,2022-01-29 00:59:22,89.46.114.203,"Mozilla/5.0 (Windows NT 10.0; Win64; x64) AppleWebKit/537.36 (KHTML, like Gecko) Chrome/97.0.4692.99 Safari/537.36",WebKit,Chrome,97.0.4692.99,Windows,10.0,667187245be6ec34b92381730ecb5f9e
20,1,"""","""","""","""","""",survey-html-form,11,448345,0.0-11.0,sh23w66pd,33173,"""","[{""name"":""understand"",""value"":""yes""},{""name"":""problems"",""value"":""nope everything worked well""},{""name"":""age"",""value"":""39""},{""name"":""gender"",""value"":""male""},{""name"":""comments"",""value"":""}]",debrief,"""",2022-01-29 00:59:22,89.46.114.203,"Mozilla/5.0 (Windows NT 10.0; Win64; x64) AppleWebKit/537.36 (KHTML, like Gecko) Chrome/97.0.4692.99 Safari/537.36",WebKit,Chrome,97.0.4692.99,Windows,10.0,667187245be6ec34b92381730ecb5f9e
20,1,"""","""","""","""","""",survey-text,12,455539,0.0-12.0,sh23w66pd,7168,"""","{""Q0"":""sh23w66pd""}","""","""",2022-01-29 00:59:22,89.46.114.203,"Mozilla/5.0 (Windows NT 10.0; Win64; x64) AppleWebKit/537.36 (KHTML, like Gecko) Chrome/97.0.4692.99 Safari/537.36",WebKit,Chrome,97.0.4692.99,Windows,10.0,667187245be6ec34b92381730ecb5f9e
22,1,true,false,[],[],[],preload,0,505,0.0-0.0,s3gz0ago5,"""","""","""","""","""",2022-01-29 01:00:42,68.197.47.79,"Mozilla/5.0 (Windows NT 10.0; Win64; x64) AppleWebKit/537.36 (KHTML, like Gecko) Chrome/94.0.4606.54 Safari/537.36 Edg/93.0.961.38",WebKit,Edge,93.0.961.38,Windows,10.0,667187245be6ec34b92381730ecb5f9e
22,1,"""","""","""","""","""",html-keyboard-response,1,59310,0.0-1.0,s3gz0ago5,58784,"<p style=""text-align:center;width:700px;""> Welcome to the experiment! This study takes most people around 10 minutes to complete. Please complete it in one sitting.</p>", ,"""","""",2022-01-29 01:00:42,68.197.47.79,"Mozilla/5.0 (Windows NT 10.0; Win64; x64) AppleWebKit/537.36 (KHTML, like Gecko) Chrome/94.0.4606.54 Safari/537.36 Edg/93.0.961.38",WebKit,Edge,93.0.961.38,Windows,10.0,667187245be6ec34b92381730ecb5f9e
22,1,"""","""","""","""","""",html-keyboard-response,2,62011,0.0-2.0,s3gz0ago5,2695,"<p style = ""font-size:16px;"">MIT Computational Cognitive Science Lab</p><h4>Press the 'y' key to consent.</h4><div style = ""background-color:#f2f2f2;""><h3>Informed Consent Form</h3><div style=""text-align:left;width:700px;""><p style = ""font-size:16px;"">In this HIT, you will be asked to read a set of instructions that describe a particular scenario, and you will then be asked to perform a simple task relating to that scenario. There will also be comprehension and attention checks. Participants who do not answer these checks correctly cannot be approved. In order to get credit for this HIT, you must read all the questions fully and answer honestly. You may only complete this HIT once. If you complete this HIT multiple times, you will be rejected.</p><p style = ""font-size:16px;"">This HIT is part of a MIT scientific research project. Your decision to complete this HIT is voluntary. There is no way for us to identify you. The only information we will have, in addition to your responses, is the time at which you completed the survey. The results of the research may be presented at scientific meetings or published in scientific journals. Pressing the ""Y"" key indicates that you are at least 18 years of age, and agree to complete this HIT voluntarily. Press the ""Y"" key to confirm your agreement and continue.</p></div>",y,"""","""",2022-01-29 01:00:42,68.197.47.79,"Mozilla/5.0 (Windows NT 10.0; Win64; x64) AppleWebKit/537.36 (KHTML, like Gecko) Chrome/94.0.4606.54 Safari/537.36 Edg/93.0.961.38",WebKit,Edge,93.0.961.38,Windows,10.0,667187245be6ec34b92381730ecb5f9e
22,1,"""","""","""","""","""",survey-text,3,107626,0.0-3.0,s3gz0ago5,45579,"""","{""instructions1"":""collect a bucket of water for each level""}",instructions,"""",2022-01-29 01:00:42,68.197.47.79,"Mozilla/5.0 (Windows NT 10.0; Win64; x64) AppleWebKit/537.36 (KHTML, like Gecko) Chrome/94.0.4606.54 Safari/537.36 Edg/93.0.961.38",WebKit,Edge,93.0.961.38,Windows,10.0,667187245be6ec34b92381730ecb5f9e
22,1,"""","""","""","""","""",survey-text,4,139268,0.0-4.0,s3gz0ago5,31611,"""","{""instructions2"":""all 8 people collect water and store it in a wooden storage bucket""}",instructions,"""",2022-01-29 01:00:42,68.197.47.79,"Mozilla/5.0 (Windows NT 10.0; Win64; x64) AppleWebKit/537.36 (KHTML, like Gecko) Chrome/94.0.4606.54 Safari/537.36 Edg/93.0.961.38",WebKit,Edge,93.0.961.38,Windows,10.0,667187245be6ec34b92381730ecb5f9e
22,1,"""","""","""","""","""",survey-text,5,167239,0.0-5.0,s3gz0ago5,27960,"""","{""instructions3"":""whether they will stay in line or take opportunities to leave the line""}",instructions,"""",2022-01-29 01:00:42,68.197.47.79,"Mozilla/5.0 (Windows NT 10.0; Win64; x64) AppleWebKit/537.36 (KHTML, like Gecko) Chrome/94.0.4606.54 Safari/537.36 Edg/93.0.961.38",WebKit,Edge,93.0.961.38,Windows,10.0,667187245be6ec34b92381730ecb5f9e
22,1,"""","""","""","""","""",survey-text,6,188536,0.0-6.0,s3gz0ago5,21283,"""","{""instructions4"":""Dodm""}",instructions,"""",2022-01-29 01:00:42,68.197.47.79,"Mozilla/5.0 (Windows NT 10.0; Win64; x64) AppleWebKit/537.36 (KHTML, like Gecko) Chrome/94.0.4606.54 Safari/537.36 Edg/93.0.961.38",WebKit,Edge,93.0.961.38,Windows,10.0,667187245be6ec34b92381730ecb5f9e
22,1,"""","""","""","""","""",video-button-response,7,219530,0.0-7.0,s3gz0ago5,30970,"[""video/no_line_1_1cut.mp4""]",1,no_1,video/no_line_1_1cut.mp4,2022-01-29 01:00:42,68.197.47.79,"Mozilla/5.0 (Windows NT 10.0; Win64; x64) AppleWebKit/537.36 (KHTML, like Gecko) Chrome/94.0.4606.54 Safari/537.36 Edg/93.0.961.38",WebKit,Edge,93.0.961.38,Windows,10.0,667187245be6ec34b92381730ecb5f9e
22,1,"""","""","""","""","""",video-button-response,8,250035,0.0-8.0,s3gz0ago5,30493,"[""video/yes_line_7_1cut.mp4""]",0,yes_1,video/yes_line_7_1cut.mp4,2022-01-29 01:00:42,68.197.47.79,"Mozilla/5.0 (Windows NT 10.0; Win64; x64) AppleWebKit/537.36 (KHTML, like Gecko) Chrome/94.0.4606.54 Safari/537.36 Edg/93.0.961.38",WebKit,Edge,93.0.961.38,Windows,10.0,667187245be6ec34b92381730ecb5f9e
22,1,"""","""","""","""","""",video-button-response,9,280863,0.0-9.0,s3gz0ago5,30814,"[""video/no_line_1_0cut.mp4""]",1,no_0,video/no_line_1_0cut.mp4,2022-01-29 01:00:42,68.197.47.79,"Mozilla/5.0 (Windows NT 10.0; Win64; x64) AppleWebKit/537.36 (KHTML, like Gecko) Chrome/94.0.4606.54 Safari/537.36 Edg/93.0.961.38",WebKit,Edge,93.0.961.38,Windows,10.0,667187245be6ec34b92381730ecb5f9e
22,1,"""","""","""","""","""",video-button-response,10,310794,0.0-10.0,s3gz0ago5,29917,"[""video/yes_line_7_0cut.mp4""]",1,yes_0,video/yes_line_7_0cut.mp4,2022-01-29 01:00:42,68.197.47.79,"Mozilla/5.0 (Windows NT 10.0; Win64; x64) AppleWebKit/537.36 (KHTML, like Gecko) Chrome/94.0.4606.54 Safari/537.36 Edg/93.0.961.38",WebKit,Edge,93.0.961.38,Windows,10.0,667187245be6ec34b92381730ecb5f9e
22,1,"""","""","""","""","""",survey-html-form,11,323719,0.0-11.0,s3gz0ago5,12911,"""","[{""name"":""understand"",""value"":""yes""},{""name"":""problems"",""value"":""No""},{""name"":""age"",""value"":""33""},{""name"":""gender"",""value"":""male""},{""name"":""comments"",""value"":""None""}]",debrief,"""",2022-01-29 01:00:42,68.197.47.79,"Mozilla/5.0 (Windows NT 10.0; Win64; x64) AppleWebKit/537.36 (KHTML, like Gecko) Chrome/94.0.4606.54 Safari/537.36 Edg/93.0.961.38",WebKit,Edge,93.0.961.38,Windows,10.0,667187245be6ec34b92381730ecb5f9e
22,1,"""","""","""","""","""",survey-text,12,329185,0.0-12.0,s3gz0ago5,5442,"""","{""Q0"":""s3gz0ago5 ""}","""","""",2022-01-29 01:00:42,68.197.47.79,"Mozilla/5.0 (Windows NT 10.0; Win64; x64) AppleWebKit/537.36 (KHTML, like Gecko) Chrome/94.0.4606.54 Safari/537.36 Edg/93.0.961.38",WebKit,Edge,93.0.961.38,Windows,10.0,667187245be6ec34b92381730ecb5f9e
26,1,true,false,[],[],[],preload,0,544,0.0-0.0,rnblfnnuw,"""","""","""","""","""",2022-01-29 01:07:00,69.113.168.239,"Mozilla/5.0 (Windows NT 10.0; Win64; x64) AppleWebKit/537.36 (KHTML, like Gecko) Chrome/97.0.4692.71 Safari/537.36",WebKit,Chrome,97.0.4692.71,Windows,10.0,667187245be6ec34b92381730ecb5f9e
26,1,"""","""","""","""","""",html-keyboard-response,1,5627,0.0-1.0,rnblfnnuw,5080,"<p style=""text-align:center;width:700px;""> Welcome to the experiment! This study takes most people around 10 minutes to complete. Please complete it in one sitting.</p>", ,"""","""",2022-01-29 01:07:00,69.113.168.239,"Mozilla/5.0 (Windows NT 10.0; Win64; x64) AppleWebKit/537.36 (KHTML, like Gecko) Chrome/97.0.4692.71 Safari/537.36",WebKit,Chrome,97.0.4692.71,Windows,10.0,667187245be6ec34b92381730ecb5f9e
26,1,"""","""","""","""","""",html-keyboard-response,2,31036,0.0-2.0,rnblfnnuw,25408,"<p style = ""font-size:16px;"">MIT Computational Cognitive Science Lab</p><h4>Press the 'y' key to consent.</h4><div style = ""background-color:#f2f2f2;""><h3>Informed Consent Form</h3><div style=""text-align:left;width:700px;""><p style = ""font-size:16px;"">In this HIT, you will be asked to read a set of instructions that describe a particular scenario, and you will then be asked to perform a simple task relating to that scenario. There will also be comprehension and attention checks. Participants who do not answer these checks correctly cannot be approved. In order to get credit for this HIT, you must read all the questions fully and answer honestly. You may only complete this HIT once. If you complete this HIT multiple times, you will be rejected.</p><p style = ""font-size:16px;"">This HIT is part of a MIT scientific research project. Your decision to complete this HIT is voluntary. There is no way for us to identify you. The only information we will have, in addition to your responses, is the time at which you completed the survey. The results of the research may be presented at scientific meetings or published in scientific journals. Pressing the ""Y"" key indicates that you are at least 18 years of age, and agree to complete this HIT voluntarily. Press the ""Y"" key to confirm your agreement and continue.</p></div>",y,"""","""",2022-01-29 01:07:00,69.113.168.239,"Mozilla/5.0 (Windows NT 10.0; Win64; x64) AppleWebKit/537.36 (KHTML, like Gecko) Chrome/97.0.4692.71 Safari/537.36",WebKit,Chrome,97.0.4692.71,Windows,10.0,667187245be6ec34b92381730ecb5f9e
26,1,"""","""","""","""","""",survey-text,3,117332,0.0-3.0,rnblfnnuw,86292,"""","{""instructions1"":""collect water and bring it back to the bucket""}",instructions,"""",2022-01-29 01:07:00,69.113.168.239,"Mozilla/5.0 (Windows NT 10.0; Win64; x64) AppleWebKit/537.36 (KHTML, like Gecko) Chrome/97.0.4692.71 Safari/537.36",WebKit,Chrome,97.0.4692.71,Windows,10.0,667187245be6ec34b92381730ecb5f9e
26,1,"""","""","""","""","""",survey-text,4,248653,0.0-4.0,rnblfnnuw,131316,"""","{""instructions2"":""when all 8 people collect water and store it in the bucket""}",instructions,"""",2022-01-29 01:07:00,69.113.168.239,"Mozilla/5.0 (Windows NT 10.0; Win64; x64) AppleWebKit/537.36 (KHTML, like Gecko) Chrome/97.0.4692.71 Safari/537.36",WebKit,Chrome,97.0.4692.71,Windows,10.0,667187245be6ec34b92381730ecb5f9e
26,1,"""","""","""","""","""",survey-text,5,390805,0.0-5.0,rnblfnnuw,142146,"""","{""instructions3"":""if they want to stay in line or leave directly for the water""}",instructions,"""",2022-01-29 01:07:00,69.113.168.239,"Mozilla/5.0 (Windows NT 10.0; Win64; x64) AppleWebKit/537.36 (KHTML, like Gecko) Chrome/97.0.4692.71 Safari/537.36",WebKit,Chrome,97.0.4692.71,Windows,10.0,667187245be6ec34b92381730ecb5f9e
26,1,"""","""","""","""","""",survey-text,6,511355,0.0-6.0,rnblfnnuw,120548,"""","{""instructions4"":""that he does not have to decide ahead of time""}",instructions,"""",2022-01-29 01:07:00,69.113.168.239,"Mozilla/5.0 (Windows NT 10.0; Win64; x64) AppleWebKit/537.36 (KHTML, like Gecko) Chrome/97.0.4692.71 Safari/537.36",WebKit,Chrome,97.0.4692.71,Windows,10.0,667187245be6ec34b92381730ecb5f9e
26,1,"""","""","""","""","""",video-button-response,7,543350,0.0-7.0,rnblfnnuw,31990,"[""video/yes_line_7_1cut.mp4""]",1,yes_1,video/yes_line_7_1cut.mp4,2022-01-29 01:07:00,69.113.168.239,"Mozilla/5.0 (Windows NT 10.0; Win64; x64) AppleWebKit/537.36 (KHTML, like Gecko) Chrome/97.0.4692.71 Safari/537.36",WebKit,Chrome,97.0.4692.71,Windows,10.0,667187245be6ec34b92381730ecb5f9e
26,1,"""","""","""","""","""",video-button-response,8,583145,0.0-8.0,rnblfnnuw,39793,"[""video/yes_line_7_0cut.mp4""]",1,yes_0,video/yes_line_7_0cut.mp4,2022-01-29 01:07:00,69.113.168.239,"Mozilla/5.0 (Windows NT 10.0; Win64; x64) AppleWebKit/537.36 (KHTML, like Gecko) Chrome/97.0.4692.71 Safari/537.36",WebKit,Chrome,97.0.4692.71,Windows,10.0,667187245be6ec34b92381730ecb5f9e
26,1,"""","""","""","""","""",video-button-response,9,623725,0.0-9.0,rnblfnnuw,40578,"[""video/no_line_1_0cut.mp4""]",1,no_0,video/no_line_1_0cut.mp4,2022-01-29 01:07:00,69.113.168.239,"Mozilla/5.0 (Windows NT 10.0; Win64; x64) AppleWebKit/537.36 (KHTML, like Gecko) Chrome/97.0.4692.71 Safari/537.36",WebKit,Chrome,97.0.4692.71,Windows,10.0,667187245be6ec34b92381730ecb5f9e
26,1,"""","""","""","""","""",video-button-response,10,653841,0.0-10.0,rnblfnnuw,30116,"[""video/no_line_1_1cut.mp4""]",0,no_1,video/no_line_1_1cut.mp4,2022-01-29 01:07:00,69.113.168.239,"Mozilla/5.0 (Windows NT 10.0; Win64; x64) AppleWebKit/537.36 (KHTML, like Gecko) Chrome/97.0.4692.71 Safari/537.36",WebKit,Chrome,97.0.4692.71,Windows,10.0,667187245be6ec34b92381730ecb5f9e
26,1,"""","""","""","""","""",survey-html-form,11,679659,0.0-11.0,rnblfnnuw,25816,"""","[{""name"":""understand"",""value"":""yes""},{""name"":""problems"",""value"":""no""},{""name"":""age"",""value"":""40""},{""name"":""gender"",""value"":""male""},{""name"":""comments"",""value"":""thank you""}]",debrief,"""",2022-01-29 01:07:00,69.113.168.239,"Mozilla/5.0 (Windows NT 10.0; Win64; x64) AppleWebKit/537.36 (KHTML, like Gecko) Chrome/97.0.4692.71 Safari/537.36",WebKit,Chrome,97.0.4692.71,Windows,10.0,667187245be6ec34b92381730ecb5f9e
26,1,"""","""","""","""","""",survey-text,12,702926,0.0-12.0,rnblfnnuw,23263,"""","{""Q0"":""rnblfnnuw""}","""","""",2022-01-29 01:07:00,69.113.168.239,"Mozilla/5.0 (Windows NT 10.0; Win64; x64) AppleWebKit/537.36 (KHTML, like Gecko) Chrome/97.0.4692.71 Safari/537.36",WebKit,Chrome,97.0.4692.71,Windows,10.0,667187245be6ec34b92381730ecb5f9e
23,1,true,false,[],[],[],preload,0,1129,0.0-0.0,q4289yfx0,"""","""","""","""","""",2022-01-29 01:03:43,173.80.212.22,"Mozilla/5.0 (Windows NT 10.0; Win64; x64) AppleWebKit/537.36 (KHTML, like Gecko) Chrome/97.0.4692.99 Safari/537.36 Edg/97.0.1072.69",WebKit,Edge,97.0.1072.69,Windows,10.0,667187245be6ec34b92381730ecb5f9e
23,1,"""","""","""","""","""",html-keyboard-response,1,2873,0.0-1.0,q4289yfx0,1735,"<p style=""text-align:center;width:700px;""> Welcome to the experiment! This study takes most people around 10 minutes to complete. Please complete it in one sitting.</p>", ,"""","""",2022-01-29 01:03:43,173.80.212.22,"Mozilla/5.0 (Windows NT 10.0; Win64; x64) AppleWebKit/537.36 (KHTML, like Gecko) Chrome/97.0.4692.99 Safari/537.36 Edg/97.0.1072.69",WebKit,Edge,97.0.1072.69,Windows,10.0,667187245be6ec34b92381730ecb5f9e
23,1,"""","""","""","""","""",html-keyboard-response,2,4886,0.0-2.0,q4289yfx0,2009,"<p style = ""font-size:16px;"">MIT Computational Cognitive Science Lab</p><h4>Press the 'y' key to consent.</h4><div style = ""background-color:#f2f2f2;""><h3>Informed Consent Form</h3><div style=""text-align:left;width:700px;""><p style = ""font-size:16px;"">In this HIT, you will be asked to read a set of instructions that describe a particular scenario, and you will then be asked to perform a simple task relating to that scenario. There will also be comprehension and attention checks. Participants who do not answer these checks correctly cannot be approved. In order to get credit for this HIT, you must read all the questions fully and answer honestly. You may only complete this HIT once. If you complete this HIT multiple times, you will be rejected.</p><p style = ""font-size:16px;"">This HIT is part of a MIT scientific research project. Your decision to complete this HIT is voluntary. There is no way for us to identify you. The only information we will have, in addition to your responses, is the time at which you completed the survey. The results of the research may be presented at scientific meetings or published in scientific journals. Pressing the ""Y"" key indicates that you are at least 18 years of age, and agree to complete this HIT voluntarily. Press the ""Y"" key to confirm your agreement and continue.</p></div>",y,"""","""",2022-01-29 01:03:43,173.80.212.22,"Mozilla/5.0 (Windows NT 10.0; Win64; x64) AppleWebKit/537.36 (KHTML, like Gecko) Chrome/97.0.4692.99 Safari/537.36 Edg/97.0.1072.69",WebKit,Edge,97.0.1072.69,Windows,10.0,667187245be6ec34b92381730ecb5f9e
23,1,"""","""","""","""","""",survey-text,3,10685,0.0-3.0,q4289yfx0,5777,"""","{""instructions1"":""collect water""}",instructions,"""",2022-01-29 01:03:43,173.80.212.22,"Mozilla/5.0 (Windows NT 10.0; Win64; x64) AppleWebKit/537.36 (KHTML, like Gecko) Chrome/97.0.4692.99 Safari/537.36 Edg/97.0.1072.69",WebKit,Edge,97.0.1072.69,Windows,10.0,667187245be6ec34b92381730ecb5f9e
23,1,"""","""","""","""","""",survey-text,4,32531,0.0-4.0,q4289yfx0,21811,"""","{""instructions2"":""when everyone collects  water and stores it""}",instructions,"""",2022-01-29 01:03:43,173.80.212.22,"Mozilla/5.0 (Windows NT 10.0; Win64; x64) AppleWebKit/537.36 (KHTML, like Gecko) Chrome/97.0.4692.99 Safari/537.36 Edg/97.0.1072.69",WebKit,Edge,97.0.1072.69,Windows,10.0,667187245be6ec34b92381730ecb5f9e
23,1,"""","""","""","""","""",survey-text,5,48730,0.0-5.0,q4289yfx0,16170,"""","{""instructions3"":""how they will behave""}",instructions,"""",2022-01-29 01:03:43,173.80.212.22,"Mozilla/5.0 (Windows NT 10.0; Win64; x64) AppleWebKit/537.36 (KHTML, like Gecko) Chrome/97.0.4692.99 Safari/537.36 Edg/97.0.1072.69",WebKit,Edge,97.0.1072.69,Windows,10.0,667187245be6ec34b92381730ecb5f9e
23,1,"""","""","""","""","""",survey-text,6,91292,0.0-6.0,q4289yfx0,42547,"""","{""instructions4"":""didnt decide strategy ahead of time""}",instructions,"""",2022-01-29 01:03:43,173.80.212.22,"Mozilla/5.0 (Windows NT 10.0; Win64; x64) AppleWebKit/537.36 (KHTML, like Gecko) Chrome/97.0.4692.99 Safari/537.36 Edg/97.0.1072.69",WebKit,Edge,97.0.1072.69,Windows,10.0,667187245be6ec34b92381730ecb5f9e
23,1,"""","""","""","""","""",video-button-response,7,123582,0.0-7.0,q4289yfx0,32278,"[""video/yes_line_7_0cut.mp4""]",1,yes_0,video/yes_line_7_0cut.mp4,2022-01-29 01:03:43,173.80.212.22,"Mozilla/5.0 (Windows NT 10.0; Win64; x64) AppleWebKit/537.36 (KHTML, like Gecko) Chrome/97.0.4692.99 Safari/537.36 Edg/97.0.1072.69",WebKit,Edge,97.0.1072.69,Windows,10.0,667187245be6ec34b92381730ecb5f9e
23,1,"""","""","""","""","""",video-button-response,8,159491,0.0-8.0,q4289yfx0,35893,"[""video/no_line_1_0cut.mp4""]",1,no_0,video/no_line_1_0cut.mp4,2022-01-29 01:03:43,173.80.212.22,"Mozilla/5.0 (Windows NT 10.0; Win64; x64) AppleWebKit/537.36 (KHTML, like Gecko) Chrome/97.0.4692.99 Safari/537.36 Edg/97.0.1072.69",WebKit,Edge,97.0.1072.69,Windows,10.0,667187245be6ec34b92381730ecb5f9e
23,1,"""","""","""","""","""",video-button-response,9,191763,0.0-9.0,q4289yfx0,32268,"[""video/yes_line_7_1cut.mp4""]",0,yes_1,video/yes_line_7_1cut.mp4,2022-01-29 01:03:43,173.80.212.22,"Mozilla/5.0 (Windows NT 10.0; Win64; x64) AppleWebKit/537.36 (KHTML, like Gecko) Chrome/97.0.4692.99 Safari/537.36 Edg/97.0.1072.69",WebKit,Edge,97.0.1072.69,Windows,10.0,667187245be6ec34b92381730ecb5f9e
23,1,"""","""","""","""","""",video-button-response,10,222416,0.0-10.0,q4289yfx0,30644,"[""video/no_line_1_1cut.mp4""]",1,no_1,video/no_line_1_1cut.mp4,2022-01-29 01:03:43,173.80.212.22,"Mozilla/5.0 (Windows NT 10.0; Win64; x64) AppleWebKit/537.36 (KHTML, like Gecko) Chrome/97.0.4692.99 Safari/537.36 Edg/97.0.1072.69",WebKit,Edge,97.0.1072.69,Windows,10.0,667187245be6ec34b92381730ecb5f9e
23,1,"""","""","""","""","""",survey-html-form,11,232004,0.0-11.0,q4289yfx0,9567,"""","[{""name"":""understand"",""value"":""yes""},{""name"":""problems"",""value"":""no""},{""name"":""age"",""value"":""39""},{""name"":""gender"",""value"":""female""},{""name"":""comments"",""value"":""no""}]",debrief,"""",2022-01-29 01:03:43,173.80.212.22,"Mozilla/5.0 (Windows NT 10.0; Win64; x64) AppleWebKit/537.36 (KHTML, like Gecko) Chrome/97.0.4692.99 Safari/537.36 Edg/97.0.1072.69",WebKit,Edge,97.0.1072.69,Windows,10.0,667187245be6ec34b92381730ecb5f9e
23,1,"""","""","""","""","""",survey-text,12,250671,0.0-12.0,q4289yfx0,18634,"""","{""Q0"":""q4289yfx0""}","""","""",2022-01-29 01:03:43,173.80.212.22,"Mozilla/5.0 (Windows NT 10.0; Win64; x64) AppleWebKit/537.36 (KHTML, like Gecko) Chrome/97.0.4692.99 Safari/537.36 Edg/97.0.1072.69",WebKit,Edge,97.0.1072.69,Windows,10.0,667187245be6ec34b92381730ecb5f9e
21,1,true,false,[],[],[],preload,0,2044,0.0-0.0,fzfrwfxm6,"""","""","""","""","""",2022-01-29 01:00:17,75.136.141.155,"Mozilla/5.0 (Windows NT 10.0; Win64; x64) AppleWebKit/537.36 (KHTML, like Gecko) Chrome/97.0.4692.71 Safari/537.36",WebKit,Chrome,97.0.4692.71,Windows,10.0,667187245be6ec34b92381730ecb5f9e
21,1,"""","""","""","""","""",html-keyboard-response,1,7709,0.0-1.0,fzfrwfxm6,5645,"<p style=""text-align:center;width:700px;""> Welcome to the experiment! This study takes most people around 10 minutes to complete. Please complete it in one sitting.</p>", ,"""","""",2022-01-29 01:00:17,75.136.141.155,"Mozilla/5.0 (Windows NT 10.0; Win64; x64) AppleWebKit/537.36 (KHTML, like Gecko) Chrome/97.0.4692.71 Safari/537.36",WebKit,Chrome,97.0.4692.71,Windows,10.0,667187245be6ec34b92381730ecb5f9e
21,1,"""","""","""","""","""",html-keyboard-response,2,17890,0.0-2.0,fzfrwfxm6,10177,"<p style = ""font-size:16px;"">MIT Computational Cognitive Science Lab</p><h4>Press the 'y' key to consent.</h4><div style = ""background-color:#f2f2f2;""><h3>Informed Consent Form</h3><div style=""text-align:left;width:700px;""><p style = ""font-size:16px;"">In this HIT, you will be asked to read a set of instructions that describe a particular scenario, and you will then be asked to perform a simple task relating to that scenario. There will also be comprehension and attention checks. Participants who do not answer these checks correctly cannot be approved. In order to get credit for this HIT, you must read all the questions fully and answer honestly. You may only complete this HIT once. If you complete this HIT multiple times, you will be rejected.</p><p style = ""font-size:16px;"">This HIT is part of a MIT scientific research project. Your decision to complete this HIT is voluntary. There is no way for us to identify you. The only information we will have, in addition to your responses, is the time at which you completed the survey. The results of the research may be presented at scientific meetings or published in scientific journals. Pressing the ""Y"" key indicates that you are at least 18 years of age, and agree to complete this HIT voluntarily. Press the ""Y"" key to confirm your agreement and continue.</p></div>",y,"""","""",2022-01-29 01:00:17,75.136.141.155,"Mozilla/5.0 (Windows NT 10.0; Win64; x64) AppleWebKit/537.36 (KHTML, like Gecko) Chrome/97.0.4692.71 Safari/537.36",WebKit,Chrome,97.0.4692.71,Windows,10.0,667187245be6ec34b92381730ecb5f9e
21,1,"""","""","""","""","""",survey-text,3,43153,0.0-3.0,fzfrwfxm6,25184,"""","{""instructions1"":""To collect water and bring it back to wooden storage buckets the fastest.""}",instructions,"""",2022-01-29 01:00:17,75.136.141.155,"Mozilla/5.0 (Windows NT 10.0; Win64; x64) AppleWebKit/537.36 (KHTML, like Gecko) Chrome/97.0.4692.71 Safari/537.36",WebKit,Chrome,97.0.4692.71,Windows,10.0,667187245be6ec34b92381730ecb5f9e
21,1,"""","""","""","""","""",survey-text,4,78315,0.0-4.0,fzfrwfxm6,35116,"""","{""instructions2"":""When all 8 people collect water and store it in a bucket.""}",instructions,"""",2022-01-29 01:00:17,75.136.141.155,"Mozilla/5.0 (Windows NT 10.0; Win64; x64) AppleWebKit/537.36 (KHTML, like Gecko) Chrome/97.0.4692.71 Safari/537.36",WebKit,Chrome,97.0.4692.71,Windows,10.0,667187245be6ec34b92381730ecb5f9e
21,1,"""","""","""","""","""",survey-text,5,112443,0.0-5.0,fzfrwfxm6,34071,"""","{""instructions3"":""Whether to stay in line or head straight for the water.""}",instructions,"""",2022-01-29 01:00:17,75.136.141.155,"Mozilla/5.0 (Windows NT 10.0; Win64; x64) AppleWebKit/537.36 (KHTML, like Gecko) Chrome/97.0.4692.71 Safari/537.36",WebKit,Chrome,97.0.4692.71,Windows,10.0,667187245be6ec34b92381730ecb5f9e
21,1,"""","""","""","""","""",survey-text,6,185679,0.0-6.0,fzfrwfxm6,73223,"""","{""instructions4"":""They have not decided their strategy yet.""}",instructions,"""",2022-01-29 01:00:17,75.136.141.155,"Mozilla/5.0 (Windows NT 10.0; Win64; x64) AppleWebKit/537.36 (KHTML, like Gecko) Chrome/97.0.4692.71 Safari/537.36",WebKit,Chrome,97.0.4692.71,Windows,10.0,667187245be6ec34b92381730ecb5f9e
21,1,"""","""","""","""","""",video-button-response,7,215736,0.0-7.0,fzfrwfxm6,30033,"[""video/yes_line_7_0cut.mp4""]",0,yes_0,video/yes_line_7_0cut.mp4,2022-01-29 01:00:17,75.136.141.155,"Mozilla/5.0 (Windows NT 10.0; Win64; x64) AppleWebKit/537.36 (KHTML, like Gecko) Chrome/97.0.4692.71 Safari/537.36",WebKit,Chrome,97.0.4692.71,Windows,10.0,667187245be6ec34b92381730ecb5f9e
21,1,"""","""","""","""","""",video-button-response,8,247937,0.0-8.0,fzfrwfxm6,32193,"[""video/no_line_1_0cut.mp4""]",1,no_0,video/no_line_1_0cut.mp4,2022-01-29 01:00:17,75.136.141.155,"Mozilla/5.0 (Windows NT 10.0; Win64; x64) AppleWebKit/537.36 (KHTML, like Gecko) Chrome/97.0.4692.71 Safari/537.36",WebKit,Chrome,97.0.4692.71,Windows,10.0,667187245be6ec34b92381730ecb5f9e
21,1,"""","""","""","""","""",video-button-response,9,302584,0.0-9.0,fzfrwfxm6,54632,"[""video/yes_line_7_1cut.mp4""]",0,yes_1,video/yes_line_7_1cut.mp4,2022-01-29 01:00:17,75.136.141.155,"Mozilla/5.0 (Windows NT 10.0; Win64; x64) AppleWebKit/537.36 (KHTML, like Gecko) Chrome/97.0.4692.71 Safari/537.36",WebKit,Chrome,97.0.4692.71,Windows,10.0,667187245be6ec34b92381730ecb5f9e
21,1,"""","""","""","""","""",video-button-response,10,333345,0.0-10.0,fzfrwfxm6,30752,"[""video/no_line_1_1cut.mp4""]",0,no_1,video/no_line_1_1cut.mp4,2022-01-29 01:00:17,75.136.141.155,"Mozilla/5.0 (Windows NT 10.0; Win64; x64) AppleWebKit/537.36 (KHTML, like Gecko) Chrome/97.0.4692.71 Safari/537.36",WebKit,Chrome,97.0.4692.71,Windows,10.0,667187245be6ec34b92381730ecb5f9e
21,1,"""","""","""","""","""",survey-html-form,11,346899,0.0-11.0,fzfrwfxm6,13541,"""","[{""name"":""understand"",""value"":""yes""},{""name"":""problems"",""value"":""None""},{""name"":""age"",""value"":""35""},{""name"":""gender"",""value"":""male""},{""name"":""comments"",""value"":""}]",debrief,"""",2022-01-29 01:00:17,75.136.141.155,"Mozilla/5.0 (Windows NT 10.0; Win64; x64) AppleWebKit/537.36 (KHTML, like Gecko) Chrome/97.0.4692.71 Safari/537.36",WebKit,Chrome,97.0.4692.71,Windows,10.0,667187245be6ec34b92381730ecb5f9e
21,1,"""","""","""","""","""",survey-text,12,360424,0.0-12.0,fzfrwfxm6,13439,"""","{""Q0"":""fzfrwfxm6""}","""","""",2022-01-29 01:00:17,75.136.141.155,"Mozilla/5.0 (Windows NT 10.0; Win64; x64) AppleWebKit/537.36 (KHTML, like Gecko) Chrome/97.0.4692.71 Safari/537.36",WebKit,Chrome,97.0.4692.71,Windows,10.0,667187245be6ec34b92381730ecb5f9e
30,1,true,false,[],[],[],preload,0,1224,0.0-0.0,vobf9gh42,"""","""","""","""","""",2022-01-29 01:10:41,184.103.110.236,"Mozilla/5.0 (Windows NT 10.0; Win64; x64) AppleWebKit/537.36 (KHTML, like Gecko) Chrome/94.0.4606.54 Safari/537.36 Edg/93.0.961.38",WebKit,Edge,93.0.961.38,Windows,10.0,667187245be6ec34b92381730ecb5f9e
30,1,"""","""","""","""","""",html-keyboard-response,1,9836,0.0-1.0,vobf9gh42,8607,"<p style=""text-align:center;width:700px;""> Welcome to the experiment! This study takes most people around 10 minutes to complete. Please complete it in one sitting.</p>", ,"""","""",2022-01-29 01:10:41,184.103.110.236,"Mozilla/5.0 (Windows NT 10.0; Win64; x64) AppleWebKit/537.36 (KHTML, like Gecko) Chrome/94.0.4606.54 Safari/537.36 Edg/93.0.961.38",WebKit,Edge,93.0.961.38,Windows,10.0,667187245be6ec34b92381730ecb5f9e
30,1,"""","""","""","""","""",html-keyboard-response,2,13578,0.0-2.0,vobf9gh42,3741,"<p style = ""font-size:16px;"">MIT Computational Cognitive Science Lab</p><h4>Press the 'y' key to consent.</h4><div style = ""background-color:#f2f2f2;""><h3>Informed Consent Form</h3><div style=""text-align:left;width:700px;""><p style = ""font-size:16px;"">In this HIT, you will be asked to read a set of instructions that describe a particular scenario, and you will then be asked to perform a simple task relating to that scenario. There will also be comprehension and attention checks. Participants who do not answer these checks correctly cannot be approved. In order to get credit for this HIT, you must read all the questions fully and answer honestly. You may only complete this HIT once. If you complete this HIT multiple times, you will be rejected.</p><p style = ""font-size:16px;"">This HIT is part of a MIT scientific research project. Your decision to complete this HIT is voluntary. There is no way for us to identify you. The only information we will have, in addition to your responses, is the time at which you completed the survey. The results of the research may be presented at scientific meetings or published in scientific journals. Pressing the ""Y"" key indicates that you are at least 18 years of age, and agree to complete this HIT voluntarily. Press the ""Y"" key to confirm your agreement and continue.</p></div>",y,"""","""",2022-01-29 01:10:41,184.103.110.236,"Mozilla/5.0 (Windows NT 10.0; Win64; x64) AppleWebKit/537.36 (KHTML, like Gecko) Chrome/94.0.4606.54 Safari/537.36 Edg/93.0.961.38",WebKit,Edge,93.0.961.38,Windows,10.0,667187245be6ec34b92381730ecb5f9e
30,1,"""","""","""","""","""",survey-text,3,134513,0.0-3.0,vobf9gh42,120925,"""","{""instructions1"":""The people are collecting water as fast as they can in order to get more points.""}",instructions,"""",2022-01-29 01:10:41,184.103.110.236,"Mozilla/5.0 (Windows NT 10.0; Win64; x64) AppleWebKit/537.36 (KHTML, like Gecko) Chrome/94.0.4606.54 Safari/537.36 Edg/93.0.961.38",WebKit,Edge,93.0.961.38,Windows,10.0,667187245be6ec34b92381730ecb5f9e
30,1,"""","""","""","""","""",survey-text,4,221503,0.0-4.0,vobf9gh42,86980,"""","{""instructions2"":""The video will end when all 8 people collect some water and store it""}",instructions,"""",2022-01-29 01:10:41,184.103.110.236,"Mozilla/5.0 (Windows NT 10.0; Win64; x64) AppleWebKit/537.36 (KHTML, like Gecko) Chrome/94.0.4606.54 Safari/537.36 Edg/93.0.961.38",WebKit,Edge,93.0.961.38,Windows,10.0,667187245be6ec34b92381730ecb5f9e
30,1,"""","""","""","""","""",survey-text,5,308116,0.0-5.0,vobf9gh42,86607,"""","{""instructions3"":""The player decides if the people will stay in line or take an opportunity to leave the line and go directly to the water""}",instructions,"""",2022-01-29 01:10:41,184.103.110.236,"Mozilla/5.0 (Windows NT 10.0; Win64; x64) AppleWebKit/537.36 (KHTML, like Gecko) Chrome/94.0.4606.54 Safari/537.36 Edg/93.0.961.38",WebKit,Edge,93.0.961.38,Windows,10.0,667187245be6ec34b92381730ecb5f9e
30,1,"""","""","""","""","""",survey-text,6,418925,0.0-6.0,vobf9gh42,110806,"""","{""instructions4"":""the one person doesn't have to decide ahead of time and gets to look at the map to decide what they do when the game starts. Me the player, has to judge them as morally acceptable or unacceptable. ""}",instructions,"""",2022-01-29 01:10:41,184.103.110.236,"Mozilla/5.0 (Windows NT 10.0; Win64; x64) AppleWebKit/537.36 (KHTML, like Gecko) Chrome/94.0.4606.54 Safari/537.36 Edg/93.0.961.38",WebKit,Edge,93.0.961.38,Windows,10.0,667187245be6ec34b92381730ecb5f9e
30,1,"""","""","""","""","""",video-button-response,7,461252,0.0-7.0,vobf9gh42,42320,"[""video/yes_line_7_0cut.mp4""]",0,yes_0,video/yes_line_7_0cut.mp4,2022-01-29 01:10:41,184.103.110.236,"Mozilla/5.0 (Windows NT 10.0; Win64; x64) AppleWebKit/537.36 (KHTML, like Gecko) Chrome/94.0.4606.54 Safari/537.36 Edg/93.0.961.38",WebKit,Edge,93.0.961.38,Windows,10.0,667187245be6ec34b92381730ecb5f9e
30,1,"""","""","""","""","""",video-button-response,8,500714,0.0-8.0,vobf9gh42,39458,"[""video/no_line_1_1cut.mp4""]",1,no_1,video/no_line_1_1cut.mp4,2022-01-29 01:10:41,184.103.110.236,"Mozilla/5.0 (Windows NT 10.0; Win64; x64) AppleWebKit/537.36 (KHTML, like Gecko) Chrome/94.0.4606.54 Safari/537.36 Edg/93.0.961.38",WebKit,Edge,93.0.961.38,Windows,10.0,667187245be6ec34b92381730ecb5f9e
30,1,"""","""","""","""","""",video-button-response,9,532004,0.0-9.0,vobf9gh42,31286,"[""video/yes_line_7_1cut.mp4""]",0,yes_1,video/yes_line_7_1cut.mp4,2022-01-29 01:10:41,184.103.110.236,"Mozilla/5.0 (Windows NT 10.0; Win64; x64) AppleWebKit/537.36 (KHTML, like Gecko) Chrome/94.0.4606.54 Safari/537.36 Edg/93.0.961.38",WebKit,Edge,93.0.961.38,Windows,10.0,667187245be6ec34b92381730ecb5f9e
30,1,"""","""","""","""","""",video-button-response,10,551292,0.0-10.0,vobf9gh42,19284,"[""video/no_line_1_0cut.mp4""]",1,no_0,video/no_line_1_0cut.mp4,2022-01-29 01:10:41,184.103.110.236,"Mozilla/5.0 (Windows NT 10.0; Win64; x64) AppleWebKit/537.36 (KHTML, like Gecko) Chrome/94.0.4606.54 Safari/537.36 Edg/93.0.961.38",WebKit,Edge,93.0.961.38,Windows,10.0,667187245be6ec34b92381730ecb5f9e
30,1,"""","""","""","""","""",survey-html-form,11,861440,0.0-11.0,vobf9gh42,310145,"""","[{""name"":""understand"",""value"":""yes""},{""name"":""problems"",""value"":""With the very first video, I accidentally hit morally unacceptable rather than my actual choice of morally acceptable. My apologies, I wanted to be honest.""},{""name"":""age"",""value"":""23""},{""name"":""gender"",""value"":""male""},{""name"":""comments"",""value"":""Thank you for the survey, I hope you have a wonderful day.""}]",debrief,"""",2022-01-29 01:10:41,184.103.110.236,"Mozilla/5.0 (Windows NT 10.0; Win64; x64) AppleWebKit/537.36 (KHTML, like Gecko) Chrome/94.0.4606.54 Safari/537.36 Edg/93.0.961.38",WebKit,Edge,93.0.961.38,Windows,10.0,667187245be6ec34b92381730ecb5f9e
30,1,"""","""","""","""","""",survey-text,12,868394,0.0-12.0,vobf9gh42,6947,"""","{""Q0"":""vobf9gh42""}","""","""",2022-01-29 01:10:41,184.103.110.236,"Mozilla/5.0 (Windows NT 10.0; Win64; x64) AppleWebKit/537.36 (KHTML, like Gecko) Chrome/94.0.4606.54 Safari/537.36 Edg/93.0.961.38",WebKit,Edge,93.0.961.38,Windows,10.0,667187245be6ec34b92381730ecb5f9e
29,1,true,false,[],[],[],preload,0,586,0.0-0.0,4c22peprj,"""","""","""","""","""",2022-01-29 01:10:26,167.224.165.133,"Mozilla/5.0 (Windows NT 10.0; Win64; x64) AppleWebKit/537.36 (KHTML, like Gecko) Chrome/97.0.4692.99 Safari/537.36",WebKit,Chrome,97.0.4692.99,Windows,10.0,667187245be6ec34b92381730ecb5f9e
29,1,"""","""","""","""","""",html-keyboard-response,1,6296,0.0-1.0,4c22peprj,5708,"<p style=""text-align:center;width:700px;""> Welcome to the experiment! This study takes most people around 10 minutes to complete. Please complete it in one sitting.</p>", ,"""","""",2022-01-29 01:10:26,167.224.165.133,"Mozilla/5.0 (Windows NT 10.0; Win64; x64) AppleWebKit/537.36 (KHTML, like Gecko) Chrome/97.0.4692.99 Safari/537.36",WebKit,Chrome,97.0.4692.99,Windows,10.0,667187245be6ec34b92381730ecb5f9e
29,1,"""","""","""","""","""",html-keyboard-response,2,18481,0.0-2.0,4c22peprj,12184,"<p style = ""font-size:16px;"">MIT Computational Cognitive Science Lab</p><h4>Press the 'y' key to consent.</h4><div style = ""background-color:#f2f2f2;""><h3>Informed Consent Form</h3><div style=""text-align:left;width:700px;""><p style = ""font-size:16px;"">In this HIT, you will be asked to read a set of instructions that describe a particular scenario, and you will then be asked to perform a simple task relating to that scenario. There will also be comprehension and attention checks. Participants who do not answer these checks correctly cannot be approved. In order to get credit for this HIT, you must read all the questions fully and answer honestly. You may only complete this HIT once. If you complete this HIT multiple times, you will be rejected.</p><p style = ""font-size:16px;"">This HIT is part of a MIT scientific research project. Your decision to complete this HIT is voluntary. There is no way for us to identify you. The only information we will have, in addition to your responses, is the time at which you completed the survey. The results of the research may be presented at scientific meetings or published in scientific journals. Pressing the ""Y"" key indicates that you are at least 18 years of age, and agree to complete this HIT voluntarily. Press the ""Y"" key to confirm your agreement and continue.</p></div>",y,"""","""",2022-01-29 01:10:26,167.224.165.133,"Mozilla/5.0 (Windows NT 10.0; Win64; x64) AppleWebKit/537.36 (KHTML, like Gecko) Chrome/97.0.4692.99 Safari/537.36",WebKit,Chrome,97.0.4692.99,Windows,10.0,667187245be6ec34b92381730ecb5f9e
29,1,"""","""","""","""","""",survey-text,3,189520,0.0-3.0,4c22peprj,171033,"""","{""instructions1"":""To collect water from a water source and bring it back to the wooden storage buckets fast, in order to score more points""}",instructions,"""",2022-01-29 01:10:26,167.224.165.133,"Mozilla/5.0 (Windows NT 10.0; Win64; x64) AppleWebKit/537.36 (KHTML, like Gecko) Chrome/97.0.4692.99 Safari/537.36",WebKit,Chrome,97.0.4692.99,Windows,10.0,667187245be6ec34b92381730ecb5f9e
29,1,"""","""","""","""","""",survey-text,4,306600,0.0-4.0,4c22peprj,117073,"""","{""instructions2"":""After all 8 people collect water and store it in a wooden storage bucket.""}",instructions,"""",2022-01-29 01:10:26,167.224.165.133,"Mozilla/5.0 (Windows NT 10.0; Win64; x64) AppleWebKit/537.36 (KHTML, like Gecko) Chrome/97.0.4692.99 Safari/537.36",WebKit,Chrome,97.0.4692.99,Windows,10.0,667187245be6ec34b92381730ecb5f9e
29,1,"""","""","""","""","""",survey-text,5,501624,0.0-5.0,4c22peprj,195022,"""","{""instructions3"":""Whether they will definitely stay in line or take opportunities to leave the line and head directly for the water source.""}",instructions,"""",2022-01-29 01:10:26,167.224.165.133,"Mozilla/5.0 (Windows NT 10.0; Win64; x64) AppleWebKit/537.36 (KHTML, like Gecko) Chrome/97.0.4692.99 Safari/537.36",WebKit,Chrome,97.0.4692.99,Windows,10.0,667187245be6ec34b92381730ecb5f9e
29,1,"""","""","""","""","""",survey-text,6,668808,0.0-6.0,4c22peprj,167182,"""","{""instructions4"":""They didn’t have to decide their strategy ahead of time, as they are allowed to decide after the game starts.""}",instructions,"""",2022-01-29 01:10:26,167.224.165.133,"Mozilla/5.0 (Windows NT 10.0; Win64; x64) AppleWebKit/537.36 (KHTML, like Gecko) Chrome/97.0.4692.99 Safari/537.36",WebKit,Chrome,97.0.4692.99,Windows,10.0,667187245be6ec34b92381730ecb5f9e
29,1,"""","""","""","""","""",video-button-response,7,701712,0.0-7.0,4c22peprj,32901,"[""video/yes_line_7_0cut.mp4""]",1,yes_0,video/yes_line_7_0cut.mp4,2022-01-29 01:10:26,167.224.165.133,"Mozilla/5.0 (Windows NT 10.0; Win64; x64) AppleWebKit/537.36 (KHTML, like Gecko) Chrome/97.0.4692.99 Safari/537.36",WebKit,Chrome,97.0.4692.99,Windows,10.0,667187245be6ec34b92381730ecb5f9e
29,1,"""","""","""","""","""",video-button-response,8,732664,0.0-8.0,4c22peprj,30950,"[""video/yes_line_7_1cut.mp4""]",0,yes_1,video/yes_line_7_1cut.mp4,2022-01-29 01:10:26,167.224.165.133,"Mozilla/5.0 (Windows NT 10.0; Win64; x64) AppleWebKit/537.36 (KHTML, like Gecko) Chrome/97.0.4692.99 Safari/537.36",WebKit,Chrome,97.0.4692.99,Windows,10.0,667187245be6ec34b92381730ecb5f9e
29,1,"""","""","""","""","""",video-button-response,9,763656,0.0-9.0,4c22peprj,30990,"[""video/no_line_1_1cut.mp4""]",1,no_1,video/no_line_1_1cut.mp4,2022-01-29 01:10:26,167.224.165.133,"Mozilla/5.0 (Windows NT 10.0; Win64; x64) AppleWebKit/537.36 (KHTML, like Gecko) Chrome/97.0.4692.99 Safari/537.36",WebKit,Chrome,97.0.4692.99,Windows,10.0,667187245be6ec34b92381730ecb5f9e
29,1,"""","""","""","""","""",video-button-response,10,794904,0.0-10.0,4c22peprj,31246,"[""video/no_line_1_0cut.mp4""]",1,no_0,video/no_line_1_0cut.mp4,2022-01-29 01:10:26,167.224.165.133,"Mozilla/5.0 (Windows NT 10.0; Win64; x64) AppleWebKit/537.36 (KHTML, like Gecko) Chrome/97.0.4692.99 Safari/537.36",WebKit,Chrome,97.0.4692.99,Windows,10.0,667187245be6ec34b92381730ecb5f9e
29,1,"""","""","""","""","""",survey-html-form,11,823568,0.0-11.0,4c22peprj,28663,"""","[{""name"":""understand"",""value"":""yes""},{""name"":""problems"",""value"":""None""},{""name"":""age"",""value"":""39""},{""name"":""gender"",""value"":""male""},{""name"":""comments"",""value"":""No""}]",debrief,"""",2022-01-29 01:10:26,167.224.165.133,"Mozilla/5.0 (Windows NT 10.0; Win64; x64) AppleWebKit/537.36 (KHTML, like Gecko) Chrome/97.0.4692.99 Safari/537.36",WebKit,Chrome,97.0.4692.99,Windows,10.0,667187245be6ec34b92381730ecb5f9e
