run_id,condition,success,timeout,failed_images,failed_audio,failed_video,trial_type,trial_index,time_elapsed,internal_node_id,ID,rt,stimulus,response,trial_category,stimulus_name,recorded_at,ip,user_agent,device,browser,browser_version,platform,platform_version,source_code_version
11,1,true,false,[],[],[],preload,0,1621,0.0-0.0,ze4la6xpl,"""","""","""","""","""",2022-01-24 04:07:43,24.240.71.71,"Mozilla/5.0 (Macintosh; Intel Mac OS X 10_15_7) AppleWebKit/537.36 (KHTML, like Gecko) Chrome/96.0.4664.110 Safari/537.36",Macintosh,Chrome,96.0.4664.110,OS X,10_15_7,4d5ed8b1f2f00df59eccea4670b22524
11,1,"""","""","""","""","""",html-keyboard-response,1,4380,0.0-1.0,ze4la6xpl,2755,"<p style=""text-align:center;width:700px;""> Welcome to the experiment! This study takes most people around 20 minutes to complete. Please complete it in one sitting.</p>", ,"""","""",2022-01-24 04:07:43,24.240.71.71,"Mozilla/5.0 (Macintosh; Intel Mac OS X 10_15_7) AppleWebKit/537.36 (KHTML, like Gecko) Chrome/96.0.4664.110 Safari/537.36",Macintosh,Chrome,96.0.4664.110,OS X,10_15_7,4d5ed8b1f2f00df59eccea4670b22524
11,1,"""","""","""","""","""",html-keyboard-response,2,9305,0.0-2.0,ze4la6xpl,4924,"<p style = ""font-size:16px;"">MIT Computational Cognitive Science Lab</p><h4>Press the 'y' key to consent.</h4><div style = ""background-color:#f2f2f2;""><h3>Informed Consent Form</h3><div style=""text-align:left;width:700px;""><p style = ""font-size:16px;"">In this HIT, you will be asked to read a set of instructions that describe a particular scenario, and you will then be asked to perform a simple task relating to that scenario. There will also be comprehension and attention checks. Participants who do not answer these checks correctly cannot be approved. In order to get credit for this HIT, you must read all the questions fully and answer honestly. You may only complete this HIT once. If you complete this HIT multiple times, you will be rejected.</p><p style = ""font-size:16px;"">This HIT is part of a MIT scientific research project. Your decision to complete this HIT is voluntary. There is no way for us to identify you. The only information we will have, in addition to your responses, is the time at which you completed the survey. The results of the research may be presented at scientific meetings or published in scientific journals. Pressing the ""Y"" key indicates that you are at least 18 years of age, and agree to complete this HIT voluntarily. Press the ""Y"" key to confirm your agreement and continue.</p></div>",y,"""","""",2022-01-24 04:07:43,24.240.71.71,"Mozilla/5.0 (Macintosh; Intel Mac OS X 10_15_7) AppleWebKit/537.36 (KHTML, like Gecko) Chrome/96.0.4664.110 Safari/537.36",Macintosh,Chrome,96.0.4664.110,OS X,10_15_7,4d5ed8b1f2f00df59eccea4670b22524
11,1,"""","""","""","""","""",survey-text,3,55743,0.0-3.0,ze4la6xpl,46430,"""","{""instructions1"":""collect water from a water source and bring it back to the wooden storage buckets""}",instructions,"""",2022-01-24 04:07:43,24.240.71.71,"Mozilla/5.0 (Macintosh; Intel Mac OS X 10_15_7) AppleWebKit/537.36 (KHTML, like Gecko) Chrome/96.0.4664.110 Safari/537.36",Macintosh,Chrome,96.0.4664.110,OS X,10_15_7,4d5ed8b1f2f00df59eccea4670b22524
11,1,"""","""","""","""","""",survey-text,4,121269,0.0-4.0,ze4la6xpl,65517,"""","{""instructions2"":""when all 8 people collect water and store it in a wooden storage bucket""}",instructions,"""",2022-01-24 04:07:43,24.240.71.71,"Mozilla/5.0 (Macintosh; Intel Mac OS X 10_15_7) AppleWebKit/537.36 (KHTML, like Gecko) Chrome/96.0.4664.110 Safari/537.36",Macintosh,Chrome,96.0.4664.110,OS X,10_15_7,4d5ed8b1f2f00df59eccea4670b22524
11,1,"""","""","""","""","""",survey-text,5,176270,0.0-5.0,ze4la6xpl,54998,"""","{""instructions3"":""1""}",instructions,"""",2022-01-24 04:07:43,24.240.71.71,"Mozilla/5.0 (Macintosh; Intel Mac OS X 10_15_7) AppleWebKit/537.36 (KHTML, like Gecko) Chrome/96.0.4664.110 Safari/537.36",Macintosh,Chrome,96.0.4664.110,OS X,10_15_7,4d5ed8b1f2f00df59eccea4670b22524
11,1,"""","""","""","""","""",video-button-response,6,240298,0.0-6.0,ze4la6xpl,64021,"[""video/yes_line_9_3cut.mp4""]",1,yes_34,video/yes_line_9_3cut.mp4,2022-01-24 04:07:43,24.240.71.71,"Mozilla/5.0 (Macintosh; Intel Mac OS X 10_15_7) AppleWebKit/537.36 (KHTML, like Gecko) Chrome/96.0.4664.110 Safari/537.36",Macintosh,Chrome,96.0.4664.110,OS X,10_15_7,4d5ed8b1f2f00df59eccea4670b22524
11,1,"""","""","""","""","""",video-button-response,7,265000,0.0-7.0,ze4la6xpl,24698,"[""video/no_line_3_3cut.mp4""]",1,no_34,video/no_line_3_3cut.mp4,2022-01-24 04:07:43,24.240.71.71,"Mozilla/5.0 (Macintosh; Intel Mac OS X 10_15_7) AppleWebKit/537.36 (KHTML, like Gecko) Chrome/96.0.4664.110 Safari/537.36",Macintosh,Chrome,96.0.4664.110,OS X,10_15_7,4d5ed8b1f2f00df59eccea4670b22524
11,1,"""","""","""","""","""",video-button-response,8,285779,0.0-8.0,ze4la6xpl,20776,"[""video/yes_line_9_1cut.mp4""]",0,yes_1,video/yes_line_9_1cut.mp4,2022-01-24 04:07:43,24.240.71.71,"Mozilla/5.0 (Macintosh; Intel Mac OS X 10_15_7) AppleWebKit/537.36 (KHTML, like Gecko) Chrome/96.0.4664.110 Safari/537.36",Macintosh,Chrome,96.0.4664.110,OS X,10_15_7,4d5ed8b1f2f00df59eccea4670b22524
11,1,"""","""","""","""","""",video-button-response,9,341522,0.0-9.0,ze4la6xpl,55742,"[""video/yes_line_10_8cut.mp4""]",1,yes_8,video/yes_line_10_8cut.mp4,2022-01-24 04:07:43,24.240.71.71,"Mozilla/5.0 (Macintosh; Intel Mac OS X 10_15_7) AppleWebKit/537.36 (KHTML, like Gecko) Chrome/96.0.4664.110 Safari/537.36",Macintosh,Chrome,96.0.4664.110,OS X,10_15_7,4d5ed8b1f2f00df59eccea4670b22524
11,1,"""","""","""","""","""",video-button-response,10,381037,0.0-10.0,ze4la6xpl,39512,"[""video/yes_line_7_8cut.mp4""]",1,yes_8,video/yes_line_7_8cut.mp4,2022-01-24 04:07:43,24.240.71.71,"Mozilla/5.0 (Macintosh; Intel Mac OS X 10_15_7) AppleWebKit/537.36 (KHTML, like Gecko) Chrome/96.0.4664.110 Safari/537.36",Macintosh,Chrome,96.0.4664.110,OS X,10_15_7,4d5ed8b1f2f00df59eccea4670b22524
11,1,"""","""","""","""","""",video-button-response,11,429320,0.0-11.0,ze4la6xpl,48280,"[""video/yes_line_10_1cut.mp4""]",0,yes_1,video/yes_line_10_1cut.mp4,2022-01-24 04:07:43,24.240.71.71,"Mozilla/5.0 (Macintosh; Intel Mac OS X 10_15_7) AppleWebKit/537.36 (KHTML, like Gecko) Chrome/96.0.4664.110 Safari/537.36",Macintosh,Chrome,96.0.4664.110,OS X,10_15_7,4d5ed8b1f2f00df59eccea4670b22524
11,1,"""","""","""","""","""",video-button-response,12,445454,0.0-12.0,ze4la6xpl,16130,"[""video/no_line_1_3cut.mp4""]",1,no_34,video/no_line_1_3cut.mp4,2022-01-24 04:07:43,24.240.71.71,"Mozilla/5.0 (Macintosh; Intel Mac OS X 10_15_7) AppleWebKit/537.36 (KHTML, like Gecko) Chrome/96.0.4664.110 Safari/537.36",Macintosh,Chrome,96.0.4664.110,OS X,10_15_7,4d5ed8b1f2f00df59eccea4670b22524
11,1,"""","""","""","""","""",video-button-response,13,480317,0.0-13.0,ze4la6xpl,34857,"[""video/yes_line_7_4cut.mp4""]",0,yes_34,video/yes_line_7_4cut.mp4,2022-01-24 04:07:43,24.240.71.71,"Mozilla/5.0 (Macintosh; Intel Mac OS X 10_15_7) AppleWebKit/537.36 (KHTML, like Gecko) Chrome/96.0.4664.110 Safari/537.36",Macintosh,Chrome,96.0.4664.110,OS X,10_15_7,4d5ed8b1f2f00df59eccea4670b22524
11,1,"""","""","""","""","""",video-button-response,14,496841,0.0-14.0,ze4la6xpl,16521,"[""video/no_line_1_8cut.mp4""]",1,no_8,video/no_line_1_8cut.mp4,2022-01-24 04:07:43,24.240.71.71,"Mozilla/5.0 (Macintosh; Intel Mac OS X 10_15_7) AppleWebKit/537.36 (KHTML, like Gecko) Chrome/96.0.4664.110 Safari/537.36",Macintosh,Chrome,96.0.4664.110,OS X,10_15_7,4d5ed8b1f2f00df59eccea4670b22524
11,1,"""","""","""","""","""",video-button-response,15,514557,0.0-15.0,ze4la6xpl,17710,"[""video/no_line_3_1cut.mp4""]",1,no_1,video/no_line_3_1cut.mp4,2022-01-24 04:07:43,24.240.71.71,"Mozilla/5.0 (Macintosh; Intel Mac OS X 10_15_7) AppleWebKit/537.36 (KHTML, like Gecko) Chrome/96.0.4664.110 Safari/537.36",Macintosh,Chrome,96.0.4664.110,OS X,10_15_7,4d5ed8b1f2f00df59eccea4670b22524
11,1,"""","""","""","""","""",video-button-response,16,529586,0.0-16.0,ze4la6xpl,15027,"[""video/no_line_2_8cut.mp4""]",1,no_8,video/no_line_2_8cut.mp4,2022-01-24 04:07:43,24.240.71.71,"Mozilla/5.0 (Macintosh; Intel Mac OS X 10_15_7) AppleWebKit/537.36 (KHTML, like Gecko) Chrome/96.0.4664.110 Safari/537.36",Macintosh,Chrome,96.0.4664.110,OS X,10_15_7,4d5ed8b1f2f00df59eccea4670b22524
11,1,"""","""","""","""","""",video-button-response,17,551045,0.0-17.0,ze4la6xpl,21455,"[""video/no_line_2_4cut.mp4""]",1,no_34,video/no_line_2_4cut.mp4,2022-01-24 04:07:43,24.240.71.71,"Mozilla/5.0 (Macintosh; Intel Mac OS X 10_15_7) AppleWebKit/537.36 (KHTML, like Gecko) Chrome/96.0.4664.110 Safari/537.36",Macintosh,Chrome,96.0.4664.110,OS X,10_15_7,4d5ed8b1f2f00df59eccea4670b22524
11,1,"""","""","""","""","""",video-button-response,18,569667,0.0-18.0,ze4la6xpl,18619,"[""video/no_line_1_1cut.mp4""]",0,no_1,video/no_line_1_1cut.mp4,2022-01-24 04:07:43,24.240.71.71,"Mozilla/5.0 (Macintosh; Intel Mac OS X 10_15_7) AppleWebKit/537.36 (KHTML, like Gecko) Chrome/96.0.4664.110 Safari/537.36",Macintosh,Chrome,96.0.4664.110,OS X,10_15_7,4d5ed8b1f2f00df59eccea4670b22524
11,1,"""","""","""","""","""",video-button-response,19,604364,0.0-19.0,ze4la6xpl,34692,"[""video/yes_line_8_1cut.mp4""]",0,yes_1,video/yes_line_8_1cut.mp4,2022-01-24 04:07:43,24.240.71.71,"Mozilla/5.0 (Macintosh; Intel Mac OS X 10_15_7) AppleWebKit/537.36 (KHTML, like Gecko) Chrome/96.0.4664.110 Safari/537.36",Macintosh,Chrome,96.0.4664.110,OS X,10_15_7,4d5ed8b1f2f00df59eccea4670b22524
11,1,"""","""","""","""","""",video-button-response,20,649916,0.0-20.0,ze4la6xpl,45549,"[""video/yes_line_10_3cut.mp4""]",0,yes_34,video/yes_line_10_3cut.mp4,2022-01-24 04:07:43,24.240.71.71,"Mozilla/5.0 (Macintosh; Intel Mac OS X 10_15_7) AppleWebKit/537.36 (KHTML, like Gecko) Chrome/96.0.4664.110 Safari/537.36",Macintosh,Chrome,96.0.4664.110,OS X,10_15_7,4d5ed8b1f2f00df59eccea4670b22524
11,1,"""","""","""","""","""",video-button-response,21,665892,0.0-21.0,ze4la6xpl,15972,"[""video/no_line_3_8cut.mp4""]",1,no_8,video/no_line_3_8cut.mp4,2022-01-24 04:07:43,24.240.71.71,"Mozilla/5.0 (Macintosh; Intel Mac OS X 10_15_7) AppleWebKit/537.36 (KHTML, like Gecko) Chrome/96.0.4664.110 Safari/537.36",Macintosh,Chrome,96.0.4664.110,OS X,10_15_7,4d5ed8b1f2f00df59eccea4670b22524
11,1,"""","""","""","""","""",video-button-response,22,682992,0.0-22.0,ze4la6xpl,17097,"[""video/no_line_2_1cut.mp4""]",1,no_1,video/no_line_2_1cut.mp4,2022-01-24 04:07:43,24.240.71.71,"Mozilla/5.0 (Macintosh; Intel Mac OS X 10_15_7) AppleWebKit/537.36 (KHTML, like Gecko) Chrome/96.0.4664.110 Safari/537.36",Macintosh,Chrome,96.0.4664.110,OS X,10_15_7,4d5ed8b1f2f00df59eccea4670b22524
11,1,"""","""","""","""","""",video-button-response,23,714182,0.0-23.0,ze4la6xpl,31187,"[""video/yes_line_9_8cut.mp4""]",0,yes_8,video/yes_line_9_8cut.mp4,2022-01-24 04:07:43,24.240.71.71,"Mozilla/5.0 (Macintosh; Intel Mac OS X 10_15_7) AppleWebKit/537.36 (KHTML, like Gecko) Chrome/96.0.4664.110 Safari/537.36",Macintosh,Chrome,96.0.4664.110,OS X,10_15_7,4d5ed8b1f2f00df59eccea4670b22524
11,1,"""","""","""","""","""",video-button-response,24,765147,0.0-24.0,ze4la6xpl,50962,"[""video/yes_line_8_8cut.mp4""]",1,yes_8,video/yes_line_8_8cut.mp4,2022-01-24 04:07:43,24.240.71.71,"Mozilla/5.0 (Macintosh; Intel Mac OS X 10_15_7) AppleWebKit/537.36 (KHTML, like Gecko) Chrome/96.0.4664.110 Safari/537.36",Macintosh,Chrome,96.0.4664.110,OS X,10_15_7,4d5ed8b1f2f00df59eccea4670b22524
11,1,"""","""","""","""","""",video-button-response,25,805876,0.0-25.0,ze4la6xpl,40724,"[""video/yes_line_8_3cut.mp4""]",1,yes_34,video/yes_line_8_3cut.mp4,2022-01-24 04:07:43,24.240.71.71,"Mozilla/5.0 (Macintosh; Intel Mac OS X 10_15_7) AppleWebKit/537.36 (KHTML, like Gecko) Chrome/96.0.4664.110 Safari/537.36",Macintosh,Chrome,96.0.4664.110,OS X,10_15_7,4d5ed8b1f2f00df59eccea4670b22524
11,1,"""","""","""","""","""",video-button-response,26,826803,0.0-26.0,ze4la6xpl,20924,"[""video/yes_line_7_1cut.mp4""]",0,yes_1,video/yes_line_7_1cut.mp4,2022-01-24 04:07:43,24.240.71.71,"Mozilla/5.0 (Macintosh; Intel Mac OS X 10_15_7) AppleWebKit/537.36 (KHTML, like Gecko) Chrome/96.0.4664.110 Safari/537.36",Macintosh,Chrome,96.0.4664.110,OS X,10_15_7,4d5ed8b1f2f00df59eccea4670b22524
11,1,"""","""","""","""","""",survey-html-form,27,841035,0.0-27.0,ze4la6xpl,14229,"""","[{""name"":""understand"",""value"":""yes""},{""name"":""problems"",""value"":""no""},{""name"":""age"",""value"":""45""},{""name"":""gender"",""value"":""male""},{""name"":""comments"",""value"":""no""}]",debrief,"""",2022-01-24 04:07:43,24.240.71.71,"Mozilla/5.0 (Macintosh; Intel Mac OS X 10_15_7) AppleWebKit/537.36 (KHTML, like Gecko) Chrome/96.0.4664.110 Safari/537.36",Macintosh,Chrome,96.0.4664.110,OS X,10_15_7,4d5ed8b1f2f00df59eccea4670b22524
11,1,"""","""","""","""","""",html-keyboard-response,28,867727,0.0-28.0,ze4la6xpl,26690,"<div style=""font-size:20px;"">This task is now over. The completion code is: ze4la6xpl You must press space after you have the completion code to finish. Thank you for your participation! </div>", ,"""","""",2022-01-24 04:07:43,24.240.71.71,"Mozilla/5.0 (Macintosh; Intel Mac OS X 10_15_7) AppleWebKit/537.36 (KHTML, like Gecko) Chrome/96.0.4664.110 Safari/537.36",Macintosh,Chrome,96.0.4664.110,OS X,10_15_7,4d5ed8b1f2f00df59eccea4670b22524
12,1,true,false,[],[],[],preload,0,1404,0.0-0.0,vabn8m3d7,"""","""","""","""","""",2022-01-24 04:07:48,71.11.158.96,"Mozilla/5.0 (Windows NT 10.0; Win64; x64) AppleWebKit/537.36 (KHTML, like Gecko) Chrome/97.0.4692.71 Safari/537.36",WebKit,Chrome,97.0.4692.71,Windows,10.0,4d5ed8b1f2f00df59eccea4670b22524
12,1,"""","""","""","""","""",html-keyboard-response,1,3918,0.0-1.0,vabn8m3d7,2511,"<p style=""text-align:center;width:700px;""> Welcome to the experiment! This study takes most people around 20 minutes to complete. Please complete it in one sitting.</p>", ,"""","""",2022-01-24 04:07:48,71.11.158.96,"Mozilla/5.0 (Windows NT 10.0; Win64; x64) AppleWebKit/537.36 (KHTML, like Gecko) Chrome/97.0.4692.71 Safari/537.36",WebKit,Chrome,97.0.4692.71,Windows,10.0,4d5ed8b1f2f00df59eccea4670b22524
12,1,"""","""","""","""","""",html-keyboard-response,2,5831,0.0-2.0,vabn8m3d7,1913,"<p style = ""font-size:16px;"">MIT Computational Cognitive Science Lab</p><h4>Press the 'y' key to consent.</h4><div style = ""background-color:#f2f2f2;""><h3>Informed Consent Form</h3><div style=""text-align:left;width:700px;""><p style = ""font-size:16px;"">In this HIT, you will be asked to read a set of instructions that describe a particular scenario, and you will then be asked to perform a simple task relating to that scenario. There will also be comprehension and attention checks. Participants who do not answer these checks correctly cannot be approved. In order to get credit for this HIT, you must read all the questions fully and answer honestly. You may only complete this HIT once. If you complete this HIT multiple times, you will be rejected.</p><p style = ""font-size:16px;"">This HIT is part of a MIT scientific research project. Your decision to complete this HIT is voluntary. There is no way for us to identify you. The only information we will have, in addition to your responses, is the time at which you completed the survey. The results of the research may be presented at scientific meetings or published in scientific journals. Pressing the ""Y"" key indicates that you are at least 18 years of age, and agree to complete this HIT voluntarily. Press the ""Y"" key to confirm your agreement and continue.</p></div>",y,"""","""",2022-01-24 04:07:48,71.11.158.96,"Mozilla/5.0 (Windows NT 10.0; Win64; x64) AppleWebKit/537.36 (KHTML, like Gecko) Chrome/97.0.4692.71 Safari/537.36",WebKit,Chrome,97.0.4692.71,Windows,10.0,4d5ed8b1f2f00df59eccea4670b22524
12,1,"""","""","""","""","""",survey-text,3,103182,0.0-3.0,vabn8m3d7,97338,"""","{""instructions1"":""collect water""}",instructions,"""",2022-01-24 04:07:48,71.11.158.96,"Mozilla/5.0 (Windows NT 10.0; Win64; x64) AppleWebKit/537.36 (KHTML, like Gecko) Chrome/97.0.4692.71 Safari/537.36",WebKit,Chrome,97.0.4692.71,Windows,10.0,4d5ed8b1f2f00df59eccea4670b22524
12,1,"""","""","""","""","""",survey-text,4,152686,0.0-4.0,vabn8m3d7,49498,"""","{""instructions2"":""all 8 people collect water and store in bucket""}",instructions,"""",2022-01-24 04:07:48,71.11.158.96,"Mozilla/5.0 (Windows NT 10.0; Win64; x64) AppleWebKit/537.36 (KHTML, like Gecko) Chrome/97.0.4692.71 Safari/537.36",WebKit,Chrome,97.0.4692.71,Windows,10.0,4d5ed8b1f2f00df59eccea4670b22524
12,1,"""","""","""","""","""",survey-text,5,334819,0.0-5.0,vabn8m3d7,182130,"""","{""instructions3"":""8""}",instructions,"""",2022-01-24 04:07:48,71.11.158.96,"Mozilla/5.0 (Windows NT 10.0; Win64; x64) AppleWebKit/537.36 (KHTML, like Gecko) Chrome/97.0.4692.71 Safari/537.36",WebKit,Chrome,97.0.4692.71,Windows,10.0,4d5ed8b1f2f00df59eccea4670b22524
12,1,"""","""","""","""","""",video-button-response,6,371667,0.0-6.0,vabn8m3d7,36845,"[""video/yes_line_8_1cut.mp4""]",1,yes_1,video/yes_line_8_1cut.mp4,2022-01-24 04:07:48,71.11.158.96,"Mozilla/5.0 (Windows NT 10.0; Win64; x64) AppleWebKit/537.36 (KHTML, like Gecko) Chrome/97.0.4692.71 Safari/537.36",WebKit,Chrome,97.0.4692.71,Windows,10.0,4d5ed8b1f2f00df59eccea4670b22524
12,1,"""","""","""","""","""",video-button-response,7,394902,0.0-7.0,vabn8m3d7,23232,"[""video/yes_line_7_1cut.mp4""]",0,yes_1,video/yes_line_7_1cut.mp4,2022-01-24 04:07:48,71.11.158.96,"Mozilla/5.0 (Windows NT 10.0; Win64; x64) AppleWebKit/537.36 (KHTML, like Gecko) Chrome/97.0.4692.71 Safari/537.36",WebKit,Chrome,97.0.4692.71,Windows,10.0,4d5ed8b1f2f00df59eccea4670b22524
12,1,"""","""","""","""","""",video-button-response,8,415987,0.0-8.0,vabn8m3d7,21080,"[""video/no_line_3_3cut.mp4""]",1,no_34,video/no_line_3_3cut.mp4,2022-01-24 04:07:48,71.11.158.96,"Mozilla/5.0 (Windows NT 10.0; Win64; x64) AppleWebKit/537.36 (KHTML, like Gecko) Chrome/97.0.4692.71 Safari/537.36",WebKit,Chrome,97.0.4692.71,Windows,10.0,4d5ed8b1f2f00df59eccea4670b22524
12,1,"""","""","""","""","""",video-button-response,9,438353,0.0-9.0,vabn8m3d7,22363,"[""video/no_line_2_1cut.mp4""]",1,no_1,video/no_line_2_1cut.mp4,2022-01-24 04:07:48,71.11.158.96,"Mozilla/5.0 (Windows NT 10.0; Win64; x64) AppleWebKit/537.36 (KHTML, like Gecko) Chrome/97.0.4692.71 Safari/537.36",WebKit,Chrome,97.0.4692.71,Windows,10.0,4d5ed8b1f2f00df59eccea4670b22524
12,1,"""","""","""","""","""",video-button-response,10,495170,0.0-10.0,vabn8m3d7,56814,"[""video/yes_line_10_1cut.mp4""]",1,yes_1,video/yes_line_10_1cut.mp4,2022-01-24 04:07:48,71.11.158.96,"Mozilla/5.0 (Windows NT 10.0; Win64; x64) AppleWebKit/537.36 (KHTML, like Gecko) Chrome/97.0.4692.71 Safari/537.36",WebKit,Chrome,97.0.4692.71,Windows,10.0,4d5ed8b1f2f00df59eccea4670b22524
12,1,"""","""","""","""","""",video-button-response,11,518111,0.0-11.0,vabn8m3d7,22939,"[""video/no_line_3_8cut.mp4""]",1,no_8,video/no_line_3_8cut.mp4,2022-01-24 04:07:48,71.11.158.96,"Mozilla/5.0 (Windows NT 10.0; Win64; x64) AppleWebKit/537.36 (KHTML, like Gecko) Chrome/97.0.4692.71 Safari/537.36",WebKit,Chrome,97.0.4692.71,Windows,10.0,4d5ed8b1f2f00df59eccea4670b22524
12,1,"""","""","""","""","""",video-button-response,12,576826,0.0-12.0,vabn8m3d7,58715,"[""video/yes_line_10_8cut.mp4""]",1,yes_8,video/yes_line_10_8cut.mp4,2022-01-24 04:07:48,71.11.158.96,"Mozilla/5.0 (Windows NT 10.0; Win64; x64) AppleWebKit/537.36 (KHTML, like Gecko) Chrome/97.0.4692.71 Safari/537.36",WebKit,Chrome,97.0.4692.71,Windows,10.0,4d5ed8b1f2f00df59eccea4670b22524
12,1,"""","""","""","""","""",video-button-response,13,594228,0.0-13.0,vabn8m3d7,17401,"[""video/no_line_1_8cut.mp4""]",1,no_8,video/no_line_1_8cut.mp4,2022-01-24 04:07:48,71.11.158.96,"Mozilla/5.0 (Windows NT 10.0; Win64; x64) AppleWebKit/537.36 (KHTML, like Gecko) Chrome/97.0.4692.71 Safari/537.36",WebKit,Chrome,97.0.4692.71,Windows,10.0,4d5ed8b1f2f00df59eccea4670b22524
12,1,"""","""","""","""","""",video-button-response,14,615844,0.0-14.0,vabn8m3d7,21613,"[""video/yes_line_9_1cut.mp4""]",1,yes_1,video/yes_line_9_1cut.mp4,2022-01-24 04:07:48,71.11.158.96,"Mozilla/5.0 (Windows NT 10.0; Win64; x64) AppleWebKit/537.36 (KHTML, like Gecko) Chrome/97.0.4692.71 Safari/537.36",WebKit,Chrome,97.0.4692.71,Windows,10.0,4d5ed8b1f2f00df59eccea4670b22524
12,1,"""","""","""","""","""",video-button-response,15,649963,0.0-15.0,vabn8m3d7,34114,"[""video/yes_line_9_8cut.mp4""]",1,yes_8,video/yes_line_9_8cut.mp4,2022-01-24 04:07:48,71.11.158.96,"Mozilla/5.0 (Windows NT 10.0; Win64; x64) AppleWebKit/537.36 (KHTML, like Gecko) Chrome/97.0.4692.71 Safari/537.36",WebKit,Chrome,97.0.4692.71,Windows,10.0,4d5ed8b1f2f00df59eccea4670b22524
12,1,"""","""","""","""","""",video-button-response,16,693820,0.0-16.0,vabn8m3d7,43853,"[""video/no_line_2_4cut.mp4""]",1,no_34,video/no_line_2_4cut.mp4,2022-01-24 04:07:48,71.11.158.96,"Mozilla/5.0 (Windows NT 10.0; Win64; x64) AppleWebKit/537.36 (KHTML, like Gecko) Chrome/97.0.4692.71 Safari/537.36",WebKit,Chrome,97.0.4692.71,Windows,10.0,4d5ed8b1f2f00df59eccea4670b22524
12,1,"""","""","""","""","""",video-button-response,17,749064,0.0-17.0,vabn8m3d7,55241,"[""video/yes_line_7_8cut.mp4""]",1,yes_8,video/yes_line_7_8cut.mp4,2022-01-24 04:07:48,71.11.158.96,"Mozilla/5.0 (Windows NT 10.0; Win64; x64) AppleWebKit/537.36 (KHTML, like Gecko) Chrome/97.0.4692.71 Safari/537.36",WebKit,Chrome,97.0.4692.71,Windows,10.0,4d5ed8b1f2f00df59eccea4670b22524
12,1,"""","""","""","""","""",video-button-response,18,785131,0.0-18.0,vabn8m3d7,36070,"[""video/yes_line_7_4cut.mp4""]",1,yes_34,video/yes_line_7_4cut.mp4,2022-01-24 04:07:48,71.11.158.96,"Mozilla/5.0 (Windows NT 10.0; Win64; x64) AppleWebKit/537.36 (KHTML, like Gecko) Chrome/97.0.4692.71 Safari/537.36",WebKit,Chrome,97.0.4692.71,Windows,10.0,4d5ed8b1f2f00df59eccea4670b22524
12,1,"""","""","""","""","""",video-button-response,19,802583,0.0-19.0,vabn8m3d7,17450,"[""video/no_line_1_3cut.mp4""]",1,no_34,video/no_line_1_3cut.mp4,2022-01-24 04:07:48,71.11.158.96,"Mozilla/5.0 (Windows NT 10.0; Win64; x64) AppleWebKit/537.36 (KHTML, like Gecko) Chrome/97.0.4692.71 Safari/537.36",WebKit,Chrome,97.0.4692.71,Windows,10.0,4d5ed8b1f2f00df59eccea4670b22524
12,1,"""","""","""","""","""",video-button-response,20,820990,0.0-20.0,vabn8m3d7,18404,"[""video/no_line_3_1cut.mp4""]",1,no_1,video/no_line_3_1cut.mp4,2022-01-24 04:07:48,71.11.158.96,"Mozilla/5.0 (Windows NT 10.0; Win64; x64) AppleWebKit/537.36 (KHTML, like Gecko) Chrome/97.0.4692.71 Safari/537.36",WebKit,Chrome,97.0.4692.71,Windows,10.0,4d5ed8b1f2f00df59eccea4670b22524
12,1,"""","""","""","""","""",video-button-response,21,856862,0.0-21.0,vabn8m3d7,35864,"[""video/yes_line_9_3cut.mp4""]",1,yes_34,video/yes_line_9_3cut.mp4,2022-01-24 04:07:48,71.11.158.96,"Mozilla/5.0 (Windows NT 10.0; Win64; x64) AppleWebKit/537.36 (KHTML, like Gecko) Chrome/97.0.4692.71 Safari/537.36",WebKit,Chrome,97.0.4692.71,Windows,10.0,4d5ed8b1f2f00df59eccea4670b22524
12,1,"""","""","""","""","""",video-button-response,22,872535,0.0-22.0,vabn8m3d7,15669,"[""video/no_line_2_8cut.mp4""]",1,no_8,video/no_line_2_8cut.mp4,2022-01-24 04:07:48,71.11.158.96,"Mozilla/5.0 (Windows NT 10.0; Win64; x64) AppleWebKit/537.36 (KHTML, like Gecko) Chrome/97.0.4692.71 Safari/537.36",WebKit,Chrome,97.0.4692.71,Windows,10.0,4d5ed8b1f2f00df59eccea4670b22524
12,1,"""","""","""","""","""",video-button-response,23,918079,0.0-23.0,vabn8m3d7,45545,"[""video/yes_line_10_3cut.mp4""]",0,yes_34,video/yes_line_10_3cut.mp4,2022-01-24 04:07:48,71.11.158.96,"Mozilla/5.0 (Windows NT 10.0; Win64; x64) AppleWebKit/537.36 (KHTML, like Gecko) Chrome/97.0.4692.71 Safari/537.36",WebKit,Chrome,97.0.4692.71,Windows,10.0,4d5ed8b1f2f00df59eccea4670b22524
12,1,"""","""","""","""","""",video-button-response,24,947325,0.0-24.0,vabn8m3d7,29243,"[""video/no_line_1_1cut.mp4""]",1,no_1,video/no_line_1_1cut.mp4,2022-01-24 04:07:48,71.11.158.96,"Mozilla/5.0 (Windows NT 10.0; Win64; x64) AppleWebKit/537.36 (KHTML, like Gecko) Chrome/97.0.4692.71 Safari/537.36",WebKit,Chrome,97.0.4692.71,Windows,10.0,4d5ed8b1f2f00df59eccea4670b22524
12,1,"""","""","""","""","""",video-button-response,25,995685,0.0-25.0,vabn8m3d7,48355,"[""video/yes_line_8_3cut.mp4""]",1,yes_34,video/yes_line_8_3cut.mp4,2022-01-24 04:07:48,71.11.158.96,"Mozilla/5.0 (Windows NT 10.0; Win64; x64) AppleWebKit/537.36 (KHTML, like Gecko) Chrome/97.0.4692.71 Safari/537.36",WebKit,Chrome,97.0.4692.71,Windows,10.0,4d5ed8b1f2f00df59eccea4670b22524
12,1,"""","""","""","""","""",video-button-response,26,1066446,0.0-26.0,vabn8m3d7,70760,"[""video/yes_line_8_8cut.mp4""]",1,yes_8,video/yes_line_8_8cut.mp4,2022-01-24 04:07:48,71.11.158.96,"Mozilla/5.0 (Windows NT 10.0; Win64; x64) AppleWebKit/537.36 (KHTML, like Gecko) Chrome/97.0.4692.71 Safari/537.36",WebKit,Chrome,97.0.4692.71,Windows,10.0,4d5ed8b1f2f00df59eccea4670b22524
12,1,"""","""","""","""","""",survey-html-form,27,1075006,0.0-27.0,vabn8m3d7,8559,"""","[{""name"":""understand"",""value"":""yes""},{""name"":""problems"",""value"":""none""},{""name"":""age"",""value"":""36""},{""name"":""gender"",""value"":""male""},{""name"":""comments"",""value"":""}]",debrief,"""",2022-01-24 04:07:48,71.11.158.96,"Mozilla/5.0 (Windows NT 10.0; Win64; x64) AppleWebKit/537.36 (KHTML, like Gecko) Chrome/97.0.4692.71 Safari/537.36",WebKit,Chrome,97.0.4692.71,Windows,10.0,4d5ed8b1f2f00df59eccea4670b22524
12,1,"""","""","""","""","""",html-keyboard-response,28,1089856,0.0-28.0,vabn8m3d7,14846,"<div style=""font-size:20px;"">This task is now over. The completion code is: vabn8m3d7 You must press space after you have the completion code to finish. Thank you for your participation! </div>", ,"""","""",2022-01-24 04:07:48,71.11.158.96,"Mozilla/5.0 (Windows NT 10.0; Win64; x64) AppleWebKit/537.36 (KHTML, like Gecko) Chrome/97.0.4692.71 Safari/537.36",WebKit,Chrome,97.0.4692.71,Windows,10.0,4d5ed8b1f2f00df59eccea4670b22524
14,1,true,false,[],[],[],preload,0,6210,0.0-0.0,roebjr8x3,"""","""","""","""","""",2022-01-24 04:08:15,67.163.230.27,"Mozilla/5.0 (Windows NT 10.0; Win64; x64) AppleWebKit/537.36 (KHTML, like Gecko) Chrome/97.0.4692.71 Safari/537.36",WebKit,Chrome,97.0.4692.71,Windows,10.0,4d5ed8b1f2f00df59eccea4670b22524
14,1,"""","""","""","""","""",html-keyboard-response,1,9798,0.0-1.0,roebjr8x3,3581,"<p style=""text-align:center;width:700px;""> Welcome to the experiment! This study takes most people around 20 minutes to complete. Please complete it in one sitting.</p>", ,"""","""",2022-01-24 04:08:15,67.163.230.27,"Mozilla/5.0 (Windows NT 10.0; Win64; x64) AppleWebKit/537.36 (KHTML, like Gecko) Chrome/97.0.4692.71 Safari/537.36",WebKit,Chrome,97.0.4692.71,Windows,10.0,4d5ed8b1f2f00df59eccea4670b22524
14,1,"""","""","""","""","""",html-keyboard-response,2,13148,0.0-2.0,roebjr8x3,3349,"<p style = ""font-size:16px;"">MIT Computational Cognitive Science Lab</p><h4>Press the 'y' key to consent.</h4><div style = ""background-color:#f2f2f2;""><h3>Informed Consent Form</h3><div style=""text-align:left;width:700px;""><p style = ""font-size:16px;"">In this HIT, you will be asked to read a set of instructions that describe a particular scenario, and you will then be asked to perform a simple task relating to that scenario. There will also be comprehension and attention checks. Participants who do not answer these checks correctly cannot be approved. In order to get credit for this HIT, you must read all the questions fully and answer honestly. You may only complete this HIT once. If you complete this HIT multiple times, you will be rejected.</p><p style = ""font-size:16px;"">This HIT is part of a MIT scientific research project. Your decision to complete this HIT is voluntary. There is no way for us to identify you. The only information we will have, in addition to your responses, is the time at which you completed the survey. The results of the research may be presented at scientific meetings or published in scientific journals. Pressing the ""Y"" key indicates that you are at least 18 years of age, and agree to complete this HIT voluntarily. Press the ""Y"" key to confirm your agreement and continue.</p></div>",y,"""","""",2022-01-24 04:08:15,67.163.230.27,"Mozilla/5.0 (Windows NT 10.0; Win64; x64) AppleWebKit/537.36 (KHTML, like Gecko) Chrome/97.0.4692.71 Safari/537.36",WebKit,Chrome,97.0.4692.71,Windows,10.0,4d5ed8b1f2f00df59eccea4670b22524
14,1,"""","""","""","""","""",survey-text,3,400930,0.0-3.0,roebjr8x3,387765,"""","{""instructions1"":""collect water as fast as possible""}",instructions,"""",2022-01-24 04:08:15,67.163.230.27,"Mozilla/5.0 (Windows NT 10.0; Win64; x64) AppleWebKit/537.36 (KHTML, like Gecko) Chrome/97.0.4692.71 Safari/537.36",WebKit,Chrome,97.0.4692.71,Windows,10.0,4d5ed8b1f2f00df59eccea4670b22524
14,1,"""","""","""","""","""",survey-text,4,452584,0.0-4.0,roebjr8x3,51616,"""","{""instructions2"":""when all 8 people collect water and store it in a wooden storage bucket""}",instructions,"""",2022-01-24 04:08:15,67.163.230.27,"Mozilla/5.0 (Windows NT 10.0; Win64; x64) AppleWebKit/537.36 (KHTML, like Gecko) Chrome/97.0.4692.71 Safari/537.36",WebKit,Chrome,97.0.4692.71,Windows,10.0,4d5ed8b1f2f00df59eccea4670b22524
14,1,"""","""","""","""","""",survey-text,5,489344,0.0-5.0,roebjr8x3,36746,"""","{""instructions3"":""one""}",instructions,"""",2022-01-24 04:08:15,67.163.230.27,"Mozilla/5.0 (Windows NT 10.0; Win64; x64) AppleWebKit/537.36 (KHTML, like Gecko) Chrome/97.0.4692.71 Safari/537.36",WebKit,Chrome,97.0.4692.71,Windows,10.0,4d5ed8b1f2f00df59eccea4670b22524
14,1,"""","""","""","""","""",video-button-response,6,520840,0.0-6.0,roebjr8x3,31492,"[""video/yes_line_9_8cut.mp4""]",1,yes_8,video/yes_line_9_8cut.mp4,2022-01-24 04:08:15,67.163.230.27,"Mozilla/5.0 (Windows NT 10.0; Win64; x64) AppleWebKit/537.36 (KHTML, like Gecko) Chrome/97.0.4692.71 Safari/537.36",WebKit,Chrome,97.0.4692.71,Windows,10.0,4d5ed8b1f2f00df59eccea4670b22524
14,1,"""","""","""","""","""",video-button-response,7,600752,0.0-7.0,roebjr8x3,79908,"[""video/yes_line_10_3cut.mp4""]",0,yes_34,video/yes_line_10_3cut.mp4,2022-01-24 04:08:15,67.163.230.27,"Mozilla/5.0 (Windows NT 10.0; Win64; x64) AppleWebKit/537.36 (KHTML, like Gecko) Chrome/97.0.4692.71 Safari/537.36",WebKit,Chrome,97.0.4692.71,Windows,10.0,4d5ed8b1f2f00df59eccea4670b22524
14,1,"""","""","""","""","""",video-button-response,8,617055,0.0-8.0,roebjr8x3,16299,"[""video/no_line_3_8cut.mp4""]",1,no_8,video/no_line_3_8cut.mp4,2022-01-24 04:08:15,67.163.230.27,"Mozilla/5.0 (Windows NT 10.0; Win64; x64) AppleWebKit/537.36 (KHTML, like Gecko) Chrome/97.0.4692.71 Safari/537.36",WebKit,Chrome,97.0.4692.71,Windows,10.0,4d5ed8b1f2f00df59eccea4670b22524
14,1,"""","""","""","""","""",video-button-response,9,658840,0.0-9.0,roebjr8x3,41780,"[""video/yes_line_10_1cut.mp4""]",0,yes_1,video/yes_line_10_1cut.mp4,2022-01-24 04:08:15,67.163.230.27,"Mozilla/5.0 (Windows NT 10.0; Win64; x64) AppleWebKit/537.36 (KHTML, like Gecko) Chrome/97.0.4692.71 Safari/537.36",WebKit,Chrome,97.0.4692.71,Windows,10.0,4d5ed8b1f2f00df59eccea4670b22524
14,1,"""","""","""","""","""",video-button-response,10,697135,0.0-10.0,roebjr8x3,38293,"[""video/yes_line_7_8cut.mp4""]",1,yes_8,video/yes_line_7_8cut.mp4,2022-01-24 04:08:15,67.163.230.27,"Mozilla/5.0 (Windows NT 10.0; Win64; x64) AppleWebKit/537.36 (KHTML, like Gecko) Chrome/97.0.4692.71 Safari/537.36",WebKit,Chrome,97.0.4692.71,Windows,10.0,4d5ed8b1f2f00df59eccea4670b22524
14,1,"""","""","""","""","""",video-button-response,11,718311,0.0-11.0,roebjr8x3,21172,"[""video/no_line_1_8cut.mp4""]",1,no_8,video/no_line_1_8cut.mp4,2022-01-24 04:08:15,67.163.230.27,"Mozilla/5.0 (Windows NT 10.0; Win64; x64) AppleWebKit/537.36 (KHTML, like Gecko) Chrome/97.0.4692.71 Safari/537.36",WebKit,Chrome,97.0.4692.71,Windows,10.0,4d5ed8b1f2f00df59eccea4670b22524
14,1,"""","""","""","""","""",video-button-response,12,767543,0.0-12.0,roebjr8x3,49229,"[""video/yes_line_8_3cut.mp4""]",1,yes_34,video/yes_line_8_3cut.mp4,2022-01-24 04:08:15,67.163.230.27,"Mozilla/5.0 (Windows NT 10.0; Win64; x64) AppleWebKit/537.36 (KHTML, like Gecko) Chrome/97.0.4692.71 Safari/537.36",WebKit,Chrome,97.0.4692.71,Windows,10.0,4d5ed8b1f2f00df59eccea4670b22524
14,1,"""","""","""","""","""",video-button-response,13,796071,0.0-13.0,roebjr8x3,28523,"[""video/yes_line_8_1cut.mp4""]",0,yes_1,video/yes_line_8_1cut.mp4,2022-01-24 04:08:15,67.163.230.27,"Mozilla/5.0 (Windows NT 10.0; Win64; x64) AppleWebKit/537.36 (KHTML, like Gecko) Chrome/97.0.4692.71 Safari/537.36",WebKit,Chrome,97.0.4692.71,Windows,10.0,4d5ed8b1f2f00df59eccea4670b22524
14,1,"""","""","""","""","""",video-button-response,14,813320,0.0-14.0,roebjr8x3,17243,"[""video/no_line_2_1cut.mp4""]",1,no_1,video/no_line_2_1cut.mp4,2022-01-24 04:08:15,67.163.230.27,"Mozilla/5.0 (Windows NT 10.0; Win64; x64) AppleWebKit/537.36 (KHTML, like Gecko) Chrome/97.0.4692.71 Safari/537.36",WebKit,Chrome,97.0.4692.71,Windows,10.0,4d5ed8b1f2f00df59eccea4670b22524
14,1,"""","""","""","""","""",video-button-response,15,847040,0.0-15.0,roebjr8x3,33716,"[""video/yes_line_7_4cut.mp4""]",0,yes_34,video/yes_line_7_4cut.mp4,2022-01-24 04:08:15,67.163.230.27,"Mozilla/5.0 (Windows NT 10.0; Win64; x64) AppleWebKit/537.36 (KHTML, like Gecko) Chrome/97.0.4692.71 Safari/537.36",WebKit,Chrome,97.0.4692.71,Windows,10.0,4d5ed8b1f2f00df59eccea4670b22524
14,1,"""","""","""","""","""",video-button-response,16,859399,0.0-16.0,roebjr8x3,12356,"[""video/no_line_2_4cut.mp4""]",1,no_34,video/no_line_2_4cut.mp4,2022-01-24 04:08:15,67.163.230.27,"Mozilla/5.0 (Windows NT 10.0; Win64; x64) AppleWebKit/537.36 (KHTML, like Gecko) Chrome/97.0.4692.71 Safari/537.36",WebKit,Chrome,97.0.4692.71,Windows,10.0,4d5ed8b1f2f00df59eccea4670b22524
14,1,"""","""","""","""","""",video-button-response,17,879919,0.0-17.0,roebjr8x3,20515,"[""video/yes_line_9_3cut.mp4""]",1,yes_34,video/yes_line_9_3cut.mp4,2022-01-24 04:08:15,67.163.230.27,"Mozilla/5.0 (Windows NT 10.0; Win64; x64) AppleWebKit/537.36 (KHTML, like Gecko) Chrome/97.0.4692.71 Safari/537.36",WebKit,Chrome,97.0.4692.71,Windows,10.0,4d5ed8b1f2f00df59eccea4670b22524
14,1,"""","""","""","""","""",video-button-response,18,890215,0.0-18.0,roebjr8x3,10294,"[""video/no_line_2_8cut.mp4""]",1,no_8,video/no_line_2_8cut.mp4,2022-01-24 04:08:15,67.163.230.27,"Mozilla/5.0 (Windows NT 10.0; Win64; x64) AppleWebKit/537.36 (KHTML, like Gecko) Chrome/97.0.4692.71 Safari/537.36",WebKit,Chrome,97.0.4692.71,Windows,10.0,4d5ed8b1f2f00df59eccea4670b22524
14,1,"""","""","""","""","""",video-button-response,19,942227,0.0-19.0,roebjr8x3,52006,"[""video/yes_line_8_8cut.mp4""]",1,yes_8,video/yes_line_8_8cut.mp4,2022-01-24 04:08:15,67.163.230.27,"Mozilla/5.0 (Windows NT 10.0; Win64; x64) AppleWebKit/537.36 (KHTML, like Gecko) Chrome/97.0.4692.71 Safari/537.36",WebKit,Chrome,97.0.4692.71,Windows,10.0,4d5ed8b1f2f00df59eccea4670b22524
14,1,"""","""","""","""","""",video-button-response,20,954591,0.0-20.0,roebjr8x3,12362,"[""video/no_line_3_1cut.mp4""]",1,no_1,video/no_line_3_1cut.mp4,2022-01-24 04:08:15,67.163.230.27,"Mozilla/5.0 (Windows NT 10.0; Win64; x64) AppleWebKit/537.36 (KHTML, like Gecko) Chrome/97.0.4692.71 Safari/537.36",WebKit,Chrome,97.0.4692.71,Windows,10.0,4d5ed8b1f2f00df59eccea4670b22524
14,1,"""","""","""","""","""",video-button-response,21,984716,0.0-21.0,roebjr8x3,30119,"[""video/yes_line_9_1cut.mp4""]",0,yes_1,video/yes_line_9_1cut.mp4,2022-01-24 04:08:15,67.163.230.27,"Mozilla/5.0 (Windows NT 10.0; Win64; x64) AppleWebKit/537.36 (KHTML, like Gecko) Chrome/97.0.4692.71 Safari/537.36",WebKit,Chrome,97.0.4692.71,Windows,10.0,4d5ed8b1f2f00df59eccea4670b22524
14,1,"""","""","""","""","""",video-button-response,22,1030727,0.0-22.0,roebjr8x3,46005,"[""video/yes_line_10_8cut.mp4""]",0,yes_8,video/yes_line_10_8cut.mp4,2022-01-24 04:08:15,67.163.230.27,"Mozilla/5.0 (Windows NT 10.0; Win64; x64) AppleWebKit/537.36 (KHTML, like Gecko) Chrome/97.0.4692.71 Safari/537.36",WebKit,Chrome,97.0.4692.71,Windows,10.0,4d5ed8b1f2f00df59eccea4670b22524
14,1,"""","""","""","""","""",video-button-response,23,1043615,0.0-23.0,roebjr8x3,12881,"[""video/no_line_1_3cut.mp4""]",1,no_34,video/no_line_1_3cut.mp4,2022-01-24 04:08:15,67.163.230.27,"Mozilla/5.0 (Windows NT 10.0; Win64; x64) AppleWebKit/537.36 (KHTML, like Gecko) Chrome/97.0.4692.71 Safari/537.36",WebKit,Chrome,97.0.4692.71,Windows,10.0,4d5ed8b1f2f00df59eccea4670b22524
14,1,"""","""","""","""","""",video-button-response,24,1057511,0.0-24.0,roebjr8x3,13891,"[""video/no_line_1_1cut.mp4""]",1,no_1,video/no_line_1_1cut.mp4,2022-01-24 04:08:15,67.163.230.27,"Mozilla/5.0 (Windows NT 10.0; Win64; x64) AppleWebKit/537.36 (KHTML, like Gecko) Chrome/97.0.4692.71 Safari/537.36",WebKit,Chrome,97.0.4692.71,Windows,10.0,4d5ed8b1f2f00df59eccea4670b22524
14,1,"""","""","""","""","""",video-button-response,25,1069999,0.0-25.0,roebjr8x3,12484,"[""video/no_line_3_3cut.mp4""]",1,no_34,video/no_line_3_3cut.mp4,2022-01-24 04:08:15,67.163.230.27,"Mozilla/5.0 (Windows NT 10.0; Win64; x64) AppleWebKit/537.36 (KHTML, like Gecko) Chrome/97.0.4692.71 Safari/537.36",WebKit,Chrome,97.0.4692.71,Windows,10.0,4d5ed8b1f2f00df59eccea4670b22524
14,1,"""","""","""","""","""",video-button-response,26,1085192,0.0-26.0,roebjr8x3,15189,"[""video/yes_line_7_1cut.mp4""]",0,yes_1,video/yes_line_7_1cut.mp4,2022-01-24 04:08:15,67.163.230.27,"Mozilla/5.0 (Windows NT 10.0; Win64; x64) AppleWebKit/537.36 (KHTML, like Gecko) Chrome/97.0.4692.71 Safari/537.36",WebKit,Chrome,97.0.4692.71,Windows,10.0,4d5ed8b1f2f00df59eccea4670b22524
14,1,"""","""","""","""","""",survey-html-form,27,1095287,0.0-27.0,roebjr8x3,10089,"""","[{""name"":""understand"",""value"":""yes""},{""name"":""problems"",""value"":""none""},{""name"":""age"",""value"":""43""},{""name"":""gender"",""value"":""male""},{""name"":""comments"",""value"":""}]",debrief,"""",2022-01-24 04:08:15,67.163.230.27,"Mozilla/5.0 (Windows NT 10.0; Win64; x64) AppleWebKit/537.36 (KHTML, like Gecko) Chrome/97.0.4692.71 Safari/537.36",WebKit,Chrome,97.0.4692.71,Windows,10.0,4d5ed8b1f2f00df59eccea4670b22524
14,1,"""","""","""","""","""",html-keyboard-response,28,1106788,0.0-28.0,roebjr8x3,11498,"<div style=""font-size:20px;"">This task is now over. The completion code is: roebjr8x3 You must press space after you have the completion code to finish. Thank you for your participation! </div>", ,"""","""",2022-01-24 04:08:15,67.163.230.27,"Mozilla/5.0 (Windows NT 10.0; Win64; x64) AppleWebKit/537.36 (KHTML, like Gecko) Chrome/97.0.4692.71 Safari/537.36",WebKit,Chrome,97.0.4692.71,Windows,10.0,4d5ed8b1f2f00df59eccea4670b22524
16,1,true,false,[],[],[],preload,0,1085,0.0-0.0,dqx3ztnpg,"""","""","""","""","""",2022-01-24 04:08:21,68.129.58.86,"Mozilla/5.0 (Windows NT 10.0; Win64; x64) AppleWebKit/537.36 (KHTML, like Gecko) Chrome/97.0.4692.71 Safari/537.36",WebKit,Chrome,97.0.4692.71,Windows,10.0,4d5ed8b1f2f00df59eccea4670b22524
16,1,"""","""","""","""","""",html-keyboard-response,1,2721,0.0-1.0,dqx3ztnpg,1629,"<p style=""text-align:center;width:700px;""> Welcome to the experiment! This study takes most people around 20 minutes to complete. Please complete it in one sitting.</p>", ,"""","""",2022-01-24 04:08:21,68.129.58.86,"Mozilla/5.0 (Windows NT 10.0; Win64; x64) AppleWebKit/537.36 (KHTML, like Gecko) Chrome/97.0.4692.71 Safari/537.36",WebKit,Chrome,97.0.4692.71,Windows,10.0,4d5ed8b1f2f00df59eccea4670b22524
16,1,"""","""","""","""","""",html-keyboard-response,2,4817,0.0-2.0,dqx3ztnpg,2096,"<p style = ""font-size:16px;"">MIT Computational Cognitive Science Lab</p><h4>Press the 'y' key to consent.</h4><div style = ""background-color:#f2f2f2;""><h3>Informed Consent Form</h3><div style=""text-align:left;width:700px;""><p style = ""font-size:16px;"">In this HIT, you will be asked to read a set of instructions that describe a particular scenario, and you will then be asked to perform a simple task relating to that scenario. There will also be comprehension and attention checks. Participants who do not answer these checks correctly cannot be approved. In order to get credit for this HIT, you must read all the questions fully and answer honestly. You may only complete this HIT once. If you complete this HIT multiple times, you will be rejected.</p><p style = ""font-size:16px;"">This HIT is part of a MIT scientific research project. Your decision to complete this HIT is voluntary. There is no way for us to identify you. The only information we will have, in addition to your responses, is the time at which you completed the survey. The results of the research may be presented at scientific meetings or published in scientific journals. Pressing the ""Y"" key indicates that you are at least 18 years of age, and agree to complete this HIT voluntarily. Press the ""Y"" key to confirm your agreement and continue.</p></div>",y,"""","""",2022-01-24 04:08:21,68.129.58.86,"Mozilla/5.0 (Windows NT 10.0; Win64; x64) AppleWebKit/537.36 (KHTML, like Gecko) Chrome/97.0.4692.71 Safari/537.36",WebKit,Chrome,97.0.4692.71,Windows,10.0,4d5ed8b1f2f00df59eccea4670b22524
16,1,"""","""","""","""","""",survey-text,3,35486,0.0-3.0,dqx3ztnpg,30656,"""","{""instructions1"":""collect water from a water source and bring it back to the wooden storage buckets""}",instructions,"""",2022-01-24 04:08:21,68.129.58.86,"Mozilla/5.0 (Windows NT 10.0; Win64; x64) AppleWebKit/537.36 (KHTML, like Gecko) Chrome/97.0.4692.71 Safari/537.36",WebKit,Chrome,97.0.4692.71,Windows,10.0,4d5ed8b1f2f00df59eccea4670b22524
16,1,"""","""","""","""","""",survey-text,4,150955,0.0-4.0,dqx3ztnpg,115442,"""","{""instructions2"":""when all 8 people collect water and store it in a wooden storage bucket.""}",instructions,"""",2022-01-24 04:08:21,68.129.58.86,"Mozilla/5.0 (Windows NT 10.0; Win64; x64) AppleWebKit/537.36 (KHTML, like Gecko) Chrome/97.0.4692.71 Safari/537.36",WebKit,Chrome,97.0.4692.71,Windows,10.0,4d5ed8b1f2f00df59eccea4670b22524
16,1,"""","""","""","""","""",survey-text,5,176265,0.0-5.0,dqx3ztnpg,25303,"""","{""instructions3"":""8""}",instructions,"""",2022-01-24 04:08:21,68.129.58.86,"Mozilla/5.0 (Windows NT 10.0; Win64; x64) AppleWebKit/537.36 (KHTML, like Gecko) Chrome/97.0.4692.71 Safari/537.36",WebKit,Chrome,97.0.4692.71,Windows,10.0,4d5ed8b1f2f00df59eccea4670b22524
16,1,"""","""","""","""","""",video-button-response,6,198810,0.0-6.0,dqx3ztnpg,22538,"[""video/yes_line_7_1cut.mp4""]",1,yes_1,video/yes_line_7_1cut.mp4,2022-01-24 04:08:21,68.129.58.86,"Mozilla/5.0 (Windows NT 10.0; Win64; x64) AppleWebKit/537.36 (KHTML, like Gecko) Chrome/97.0.4692.71 Safari/537.36",WebKit,Chrome,97.0.4692.71,Windows,10.0,4d5ed8b1f2f00df59eccea4670b22524
16,1,"""","""","""","""","""",video-button-response,7,256035,0.0-7.0,dqx3ztnpg,57215,"[""video/yes_line_10_1cut.mp4""]",0,yes_1,video/yes_line_10_1cut.mp4,2022-01-24 04:08:21,68.129.58.86,"Mozilla/5.0 (Windows NT 10.0; Win64; x64) AppleWebKit/537.36 (KHTML, like Gecko) Chrome/97.0.4692.71 Safari/537.36",WebKit,Chrome,97.0.4692.71,Windows,10.0,4d5ed8b1f2f00df59eccea4670b22524
16,1,"""","""","""","""","""",video-button-response,8,284849,0.0-8.0,dqx3ztnpg,28808,"[""video/yes_line_9_3cut.mp4""]",1,yes_34,video/yes_line_9_3cut.mp4,2022-01-24 04:08:21,68.129.58.86,"Mozilla/5.0 (Windows NT 10.0; Win64; x64) AppleWebKit/537.36 (KHTML, like Gecko) Chrome/97.0.4692.71 Safari/537.36",WebKit,Chrome,97.0.4692.71,Windows,10.0,4d5ed8b1f2f00df59eccea4670b22524
16,1,"""","""","""","""","""",video-button-response,9,377635,0.0-9.0,dqx3ztnpg,92789,"[""video/yes_line_10_8cut.mp4""]",0,yes_8,video/yes_line_10_8cut.mp4,2022-01-24 04:08:21,68.129.58.86,"Mozilla/5.0 (Windows NT 10.0; Win64; x64) AppleWebKit/537.36 (KHTML, like Gecko) Chrome/97.0.4692.71 Safari/537.36",WebKit,Chrome,97.0.4692.71,Windows,10.0,4d5ed8b1f2f00df59eccea4670b22524
16,1,"""","""","""","""","""",video-button-response,10,534468,0.0-10.0,dqx3ztnpg,156824,"[""video/yes_line_10_3cut.mp4""]",0,yes_34,video/yes_line_10_3cut.mp4,2022-01-24 04:08:21,68.129.58.86,"Mozilla/5.0 (Windows NT 10.0; Win64; x64) AppleWebKit/537.36 (KHTML, like Gecko) Chrome/97.0.4692.71 Safari/537.36",WebKit,Chrome,97.0.4692.71,Windows,10.0,4d5ed8b1f2f00df59eccea4670b22524
16,1,"""","""","""","""","""",video-button-response,11,552523,0.0-11.0,dqx3ztnpg,18051,"[""video/no_line_3_8cut.mp4""]",1,no_8,video/no_line_3_8cut.mp4,2022-01-24 04:08:21,68.129.58.86,"Mozilla/5.0 (Windows NT 10.0; Win64; x64) AppleWebKit/537.36 (KHTML, like Gecko) Chrome/97.0.4692.71 Safari/537.36",WebKit,Chrome,97.0.4692.71,Windows,10.0,4d5ed8b1f2f00df59eccea4670b22524
16,1,"""","""","""","""","""",video-button-response,12,684779,0.0-12.0,dqx3ztnpg,132249,"[""video/yes_line_8_8cut.mp4""]",1,yes_8,video/yes_line_8_8cut.mp4,2022-01-24 04:08:21,68.129.58.86,"Mozilla/5.0 (Windows NT 10.0; Win64; x64) AppleWebKit/537.36 (KHTML, like Gecko) Chrome/97.0.4692.71 Safari/537.36",WebKit,Chrome,97.0.4692.71,Windows,10.0,4d5ed8b1f2f00df59eccea4670b22524
16,1,"""","""","""","""","""",video-button-response,13,760474,0.0-13.0,dqx3ztnpg,75687,"[""video/yes_line_8_1cut.mp4""]",1,yes_1,video/yes_line_8_1cut.mp4,2022-01-24 04:08:21,68.129.58.86,"Mozilla/5.0 (Windows NT 10.0; Win64; x64) AppleWebKit/537.36 (KHTML, like Gecko) Chrome/97.0.4692.71 Safari/537.36",WebKit,Chrome,97.0.4692.71,Windows,10.0,4d5ed8b1f2f00df59eccea4670b22524
16,1,"""","""","""","""","""",video-button-response,14,890697,0.0-14.0,dqx3ztnpg,130219,"[""video/no_line_1_8cut.mp4""]",1,no_8,video/no_line_1_8cut.mp4,2022-01-24 04:08:21,68.129.58.86,"Mozilla/5.0 (Windows NT 10.0; Win64; x64) AppleWebKit/537.36 (KHTML, like Gecko) Chrome/97.0.4692.71 Safari/537.36",WebKit,Chrome,97.0.4692.71,Windows,10.0,4d5ed8b1f2f00df59eccea4670b22524
16,1,"""","""","""","""","""",video-button-response,15,1036159,0.0-15.0,dqx3ztnpg,145453,"[""video/yes_line_7_8cut.mp4""]",1,yes_8,video/yes_line_7_8cut.mp4,2022-01-24 04:08:21,68.129.58.86,"Mozilla/5.0 (Windows NT 10.0; Win64; x64) AppleWebKit/537.36 (KHTML, like Gecko) Chrome/97.0.4692.71 Safari/537.36",WebKit,Chrome,97.0.4692.71,Windows,10.0,4d5ed8b1f2f00df59eccea4670b22524
16,1,"""","""","""","""","""",video-button-response,16,1070291,0.0-16.0,dqx3ztnpg,34125,"[""video/yes_line_7_4cut.mp4""]",1,yes_34,video/yes_line_7_4cut.mp4,2022-01-24 04:08:21,68.129.58.86,"Mozilla/5.0 (Windows NT 10.0; Win64; x64) AppleWebKit/537.36 (KHTML, like Gecko) Chrome/97.0.4692.71 Safari/537.36",WebKit,Chrome,97.0.4692.71,Windows,10.0,4d5ed8b1f2f00df59eccea4670b22524
16,1,"""","""","""","""","""",video-button-response,17,1109452,0.0-17.0,dqx3ztnpg,39157,"[""video/no_line_2_1cut.mp4""]",1,no_1,video/no_line_2_1cut.mp4,2022-01-24 04:08:21,68.129.58.86,"Mozilla/5.0 (Windows NT 10.0; Win64; x64) AppleWebKit/537.36 (KHTML, like Gecko) Chrome/97.0.4692.71 Safari/537.36",WebKit,Chrome,97.0.4692.71,Windows,10.0,4d5ed8b1f2f00df59eccea4670b22524
16,1,"""","""","""","""","""",video-button-response,18,1185166,0.0-18.0,dqx3ztnpg,75705,"[""video/yes_line_9_1cut.mp4""]",1,yes_1,video/yes_line_9_1cut.mp4,2022-01-24 04:08:21,68.129.58.86,"Mozilla/5.0 (Windows NT 10.0; Win64; x64) AppleWebKit/537.36 (KHTML, like Gecko) Chrome/97.0.4692.71 Safari/537.36",WebKit,Chrome,97.0.4692.71,Windows,10.0,4d5ed8b1f2f00df59eccea4670b22524
16,1,"""","""","""","""","""",video-button-response,19,1200896,0.0-19.0,dqx3ztnpg,15726,"[""video/no_line_3_3cut.mp4""]",0,no_34,video/no_line_3_3cut.mp4,2022-01-24 04:08:21,68.129.58.86,"Mozilla/5.0 (Windows NT 10.0; Win64; x64) AppleWebKit/537.36 (KHTML, like Gecko) Chrome/97.0.4692.71 Safari/537.36",WebKit,Chrome,97.0.4692.71,Windows,10.0,4d5ed8b1f2f00df59eccea4670b22524
16,1,"""","""","""","""","""",video-button-response,20,1231430,0.0-20.0,dqx3ztnpg,30526,"[""video/no_line_1_3cut.mp4""]",1,no_34,video/no_line_1_3cut.mp4,2022-01-24 04:08:21,68.129.58.86,"Mozilla/5.0 (Windows NT 10.0; Win64; x64) AppleWebKit/537.36 (KHTML, like Gecko) Chrome/97.0.4692.71 Safari/537.36",WebKit,Chrome,97.0.4692.71,Windows,10.0,4d5ed8b1f2f00df59eccea4670b22524
16,1,"""","""","""","""","""",video-button-response,21,1267562,0.0-21.0,dqx3ztnpg,36127,"[""video/no_line_3_1cut.mp4""]",0,no_1,video/no_line_3_1cut.mp4,2022-01-24 04:08:21,68.129.58.86,"Mozilla/5.0 (Windows NT 10.0; Win64; x64) AppleWebKit/537.36 (KHTML, like Gecko) Chrome/97.0.4692.71 Safari/537.36",WebKit,Chrome,97.0.4692.71,Windows,10.0,4d5ed8b1f2f00df59eccea4670b22524
16,1,"""","""","""","""","""",video-button-response,22,1286687,0.0-22.0,dqx3ztnpg,19125,"[""video/no_line_2_8cut.mp4""]",1,no_8,video/no_line_2_8cut.mp4,2022-01-24 04:08:21,68.129.58.86,"Mozilla/5.0 (Windows NT 10.0; Win64; x64) AppleWebKit/537.36 (KHTML, like Gecko) Chrome/97.0.4692.71 Safari/537.36",WebKit,Chrome,97.0.4692.71,Windows,10.0,4d5ed8b1f2f00df59eccea4670b22524
16,1,"""","""","""","""","""",video-button-response,23,1325923,0.0-23.0,dqx3ztnpg,39232,"[""video/no_line_2_4cut.mp4""]",1,no_34,video/no_line_2_4cut.mp4,2022-01-24 04:08:21,68.129.58.86,"Mozilla/5.0 (Windows NT 10.0; Win64; x64) AppleWebKit/537.36 (KHTML, like Gecko) Chrome/97.0.4692.71 Safari/537.36",WebKit,Chrome,97.0.4692.71,Windows,10.0,4d5ed8b1f2f00df59eccea4670b22524
16,1,"""","""","""","""","""",video-button-response,24,1532787,0.0-24.0,dqx3ztnpg,206855,"[""video/yes_line_9_8cut.mp4""]",1,yes_8,video/yes_line_9_8cut.mp4,2022-01-24 04:08:21,68.129.58.86,"Mozilla/5.0 (Windows NT 10.0; Win64; x64) AppleWebKit/537.36 (KHTML, like Gecko) Chrome/97.0.4692.71 Safari/537.36",WebKit,Chrome,97.0.4692.71,Windows,10.0,4d5ed8b1f2f00df59eccea4670b22524
16,1,"""","""","""","""","""",video-button-response,25,1552097,0.0-25.0,dqx3ztnpg,19306,"[""video/no_line_1_1cut.mp4""]",0,no_1,video/no_line_1_1cut.mp4,2022-01-24 04:08:21,68.129.58.86,"Mozilla/5.0 (Windows NT 10.0; Win64; x64) AppleWebKit/537.36 (KHTML, like Gecko) Chrome/97.0.4692.71 Safari/537.36",WebKit,Chrome,97.0.4692.71,Windows,10.0,4d5ed8b1f2f00df59eccea4670b22524
16,1,"""","""","""","""","""",video-button-response,26,1563622,0.0-26.0,dqx3ztnpg,11521,"[""video/yes_line_8_3cut.mp4""]",1,yes_34,video/yes_line_8_3cut.mp4,2022-01-24 04:08:21,68.129.58.86,"Mozilla/5.0 (Windows NT 10.0; Win64; x64) AppleWebKit/537.36 (KHTML, like Gecko) Chrome/97.0.4692.71 Safari/537.36",WebKit,Chrome,97.0.4692.71,Windows,10.0,4d5ed8b1f2f00df59eccea4670b22524
16,1,"""","""","""","""","""",survey-html-form,27,1579738,0.0-27.0,dqx3ztnpg,16109,"""","[{""name"":""understand"",""value"":""yes""},{""name"":""problems"",""value"":""None""},{""name"":""age"",""value"":""32""},{""name"":""gender"",""value"":""male""},{""name"":""comments"",""value"":"" No""}]",debrief,"""",2022-01-24 04:08:21,68.129.58.86,"Mozilla/5.0 (Windows NT 10.0; Win64; x64) AppleWebKit/537.36 (KHTML, like Gecko) Chrome/97.0.4692.71 Safari/537.36",WebKit,Chrome,97.0.4692.71,Windows,10.0,4d5ed8b1f2f00df59eccea4670b22524
16,1,"""","""","""","""","""",html-keyboard-response,28,1590648,0.0-28.0,dqx3ztnpg,10905,"<div style=""font-size:20px;"">This task is now over. The completion code is: dqx3ztnpg You must press space after you have the completion code to finish. Thank you for your participation! </div>", ,"""","""",2022-01-24 04:08:21,68.129.58.86,"Mozilla/5.0 (Windows NT 10.0; Win64; x64) AppleWebKit/537.36 (KHTML, like Gecko) Chrome/97.0.4692.71 Safari/537.36",WebKit,Chrome,97.0.4692.71,Windows,10.0,4d5ed8b1f2f00df59eccea4670b22524
10,1,true,false,[],[],[],preload,0,1751,0.0-0.0,2a206lrr6,"""","""","""","""","""",2022-01-24 04:07:39,107.5.88.103,"Mozilla/5.0 (Windows NT 10.0; Win64; x64) AppleWebKit/537.36 (KHTML, like Gecko) Chrome/97.0.4692.71 Safari/537.36",WebKit,Chrome,97.0.4692.71,Windows,10.0,4d5ed8b1f2f00df59eccea4670b22524
10,1,"""","""","""","""","""",html-keyboard-response,1,409267,0.0-1.0,2a206lrr6,407510,"<p style=""text-align:center;width:700px;""> Welcome to the experiment! This study takes most people around 20 minutes to complete. Please complete it in one sitting.</p>", ,"""","""",2022-01-24 04:07:39,107.5.88.103,"Mozilla/5.0 (Windows NT 10.0; Win64; x64) AppleWebKit/537.36 (KHTML, like Gecko) Chrome/97.0.4692.71 Safari/537.36",WebKit,Chrome,97.0.4692.71,Windows,10.0,4d5ed8b1f2f00df59eccea4670b22524
10,1,"""","""","""","""","""",html-keyboard-response,2,440700,0.0-2.0,2a206lrr6,31431,"<p style = ""font-size:16px;"">MIT Computational Cognitive Science Lab</p><h4>Press the 'y' key to consent.</h4><div style = ""background-color:#f2f2f2;""><h3>Informed Consent Form</h3><div style=""text-align:left;width:700px;""><p style = ""font-size:16px;"">In this HIT, you will be asked to read a set of instructions that describe a particular scenario, and you will then be asked to perform a simple task relating to that scenario. There will also be comprehension and attention checks. Participants who do not answer these checks correctly cannot be approved. In order to get credit for this HIT, you must read all the questions fully and answer honestly. You may only complete this HIT once. If you complete this HIT multiple times, you will be rejected.</p><p style = ""font-size:16px;"">This HIT is part of a MIT scientific research project. Your decision to complete this HIT is voluntary. There is no way for us to identify you. The only information we will have, in addition to your responses, is the time at which you completed the survey. The results of the research may be presented at scientific meetings or published in scientific journals. Pressing the ""Y"" key indicates that you are at least 18 years of age, and agree to complete this HIT voluntarily. Press the ""Y"" key to confirm your agreement and continue.</p></div>",y,"""","""",2022-01-24 04:07:39,107.5.88.103,"Mozilla/5.0 (Windows NT 10.0; Win64; x64) AppleWebKit/537.36 (KHTML, like Gecko) Chrome/97.0.4692.71 Safari/537.36",WebKit,Chrome,97.0.4692.71,Windows,10.0,4d5ed8b1f2f00df59eccea4670b22524
10,1,"""","""","""","""","""",survey-text,3,475474,0.0-3.0,2a206lrr6,34759,"""","{""instructions1"":""To collect water from a water source and bring it back to the wooden storage buckets ""}",instructions,"""",2022-01-24 04:07:39,107.5.88.103,"Mozilla/5.0 (Windows NT 10.0; Win64; x64) AppleWebKit/537.36 (KHTML, like Gecko) Chrome/97.0.4692.71 Safari/537.36",WebKit,Chrome,97.0.4692.71,Windows,10.0,4d5ed8b1f2f00df59eccea4670b22524
10,1,"""","""","""","""","""",survey-text,4,577331,0.0-4.0,2a206lrr6,101848,"""","{""instructions2"":""When all 8 people collect water and store it in a wooden storage bucket.""}",instructions,"""",2022-01-24 04:07:39,107.5.88.103,"Mozilla/5.0 (Windows NT 10.0; Win64; x64) AppleWebKit/537.36 (KHTML, like Gecko) Chrome/97.0.4692.71 Safari/537.36",WebKit,Chrome,97.0.4692.71,Windows,10.0,4d5ed8b1f2f00df59eccea4670b22524
10,1,"""","""","""","""","""",survey-text,5,746049,0.0-5.0,2a206lrr6,168715,"""","{""instructions3"":""1""}",instructions,"""",2022-01-24 04:07:39,107.5.88.103,"Mozilla/5.0 (Windows NT 10.0; Win64; x64) AppleWebKit/537.36 (KHTML, like Gecko) Chrome/97.0.4692.71 Safari/537.36",WebKit,Chrome,97.0.4692.71,Windows,10.0,4d5ed8b1f2f00df59eccea4670b22524
10,1,"""","""","""","""","""",video-button-response,6,771468,0.0-6.0,2a206lrr6,25417,"[""video/yes_line_7_8cut.mp4""]",1,yes_8,video/yes_line_7_8cut.mp4,2022-01-24 04:07:39,107.5.88.103,"Mozilla/5.0 (Windows NT 10.0; Win64; x64) AppleWebKit/537.36 (KHTML, like Gecko) Chrome/97.0.4692.71 Safari/537.36",WebKit,Chrome,97.0.4692.71,Windows,10.0,4d5ed8b1f2f00df59eccea4670b22524
10,1,"""","""","""","""","""",video-button-response,7,802724,0.0-7.0,2a206lrr6,31253,"[""video/yes_line_9_1cut.mp4""]",0,yes_1,video/yes_line_9_1cut.mp4,2022-01-24 04:07:39,107.5.88.103,"Mozilla/5.0 (Windows NT 10.0; Win64; x64) AppleWebKit/537.36 (KHTML, like Gecko) Chrome/97.0.4692.71 Safari/537.36",WebKit,Chrome,97.0.4692.71,Windows,10.0,4d5ed8b1f2f00df59eccea4670b22524
10,1,"""","""","""","""","""",video-button-response,8,827087,0.0-8.0,2a206lrr6,24360,"[""video/no_line_2_4cut.mp4""]",1,no_34,video/no_line_2_4cut.mp4,2022-01-24 04:07:39,107.5.88.103,"Mozilla/5.0 (Windows NT 10.0; Win64; x64) AppleWebKit/537.36 (KHTML, like Gecko) Chrome/97.0.4692.71 Safari/537.36",WebKit,Chrome,97.0.4692.71,Windows,10.0,4d5ed8b1f2f00df59eccea4670b22524
10,1,"""","""","""","""","""",video-button-response,9,848215,0.0-9.0,2a206lrr6,21125,"[""video/no_line_1_1cut.mp4""]",1,no_1,video/no_line_1_1cut.mp4,2022-01-24 04:07:39,107.5.88.103,"Mozilla/5.0 (Windows NT 10.0; Win64; x64) AppleWebKit/537.36 (KHTML, like Gecko) Chrome/97.0.4692.71 Safari/537.36",WebKit,Chrome,97.0.4692.71,Windows,10.0,4d5ed8b1f2f00df59eccea4670b22524
10,1,"""","""","""","""","""",video-button-response,10,858893,0.0-10.0,2a206lrr6,10676,"[""video/no_line_2_8cut.mp4""]",1,no_8,video/no_line_2_8cut.mp4,2022-01-24 04:07:39,107.5.88.103,"Mozilla/5.0 (Windows NT 10.0; Win64; x64) AppleWebKit/537.36 (KHTML, like Gecko) Chrome/97.0.4692.71 Safari/537.36",WebKit,Chrome,97.0.4692.71,Windows,10.0,4d5ed8b1f2f00df59eccea4670b22524
10,1,"""","""","""","""","""",video-button-response,11,881176,0.0-11.0,2a206lrr6,22281,"[""video/yes_line_7_4cut.mp4""]",0,yes_34,video/yes_line_7_4cut.mp4,2022-01-24 04:07:39,107.5.88.103,"Mozilla/5.0 (Windows NT 10.0; Win64; x64) AppleWebKit/537.36 (KHTML, like Gecko) Chrome/97.0.4692.71 Safari/537.36",WebKit,Chrome,97.0.4692.71,Windows,10.0,4d5ed8b1f2f00df59eccea4670b22524
10,1,"""","""","""","""","""",video-button-response,12,905822,0.0-12.0,2a206lrr6,24644,"[""video/yes_line_7_1cut.mp4""]",0,yes_1,video/yes_line_7_1cut.mp4,2022-01-24 04:07:39,107.5.88.103,"Mozilla/5.0 (Windows NT 10.0; Win64; x64) AppleWebKit/537.36 (KHTML, like Gecko) Chrome/97.0.4692.71 Safari/537.36",WebKit,Chrome,97.0.4692.71,Windows,10.0,4d5ed8b1f2f00df59eccea4670b22524
10,1,"""","""","""","""","""",video-button-response,13,923704,0.0-13.0,2a206lrr6,17879,"[""video/no_line_1_8cut.mp4""]",1,no_8,video/no_line_1_8cut.mp4,2022-01-24 04:07:39,107.5.88.103,"Mozilla/5.0 (Windows NT 10.0; Win64; x64) AppleWebKit/537.36 (KHTML, like Gecko) Chrome/97.0.4692.71 Safari/537.36",WebKit,Chrome,97.0.4692.71,Windows,10.0,4d5ed8b1f2f00df59eccea4670b22524
10,1,"""","""","""","""","""",video-button-response,14,941592,0.0-14.0,2a206lrr6,17887,"[""video/no_line_2_1cut.mp4""]",1,no_1,video/no_line_2_1cut.mp4,2022-01-24 04:07:39,107.5.88.103,"Mozilla/5.0 (Windows NT 10.0; Win64; x64) AppleWebKit/537.36 (KHTML, like Gecko) Chrome/97.0.4692.71 Safari/537.36",WebKit,Chrome,97.0.4692.71,Windows,10.0,4d5ed8b1f2f00df59eccea4670b22524
10,1,"""","""","""","""","""",video-button-response,15,987735,0.0-15.0,2a206lrr6,46140,"[""video/yes_line_10_3cut.mp4""]",0,yes_34,video/yes_line_10_3cut.mp4,2022-01-24 04:07:39,107.5.88.103,"Mozilla/5.0 (Windows NT 10.0; Win64; x64) AppleWebKit/537.36 (KHTML, like Gecko) Chrome/97.0.4692.71 Safari/537.36",WebKit,Chrome,97.0.4692.71,Windows,10.0,4d5ed8b1f2f00df59eccea4670b22524
10,1,"""","""","""","""","""",video-button-response,16,1029934,0.0-16.0,2a206lrr6,42197,"[""video/yes_line_8_3cut.mp4""]",1,yes_34,video/yes_line_8_3cut.mp4,2022-01-24 04:07:39,107.5.88.103,"Mozilla/5.0 (Windows NT 10.0; Win64; x64) AppleWebKit/537.36 (KHTML, like Gecko) Chrome/97.0.4692.71 Safari/537.36",WebKit,Chrome,97.0.4692.71,Windows,10.0,4d5ed8b1f2f00df59eccea4670b22524
10,1,"""","""","""","""","""",video-button-response,17,1046641,0.0-17.0,2a206lrr6,16703,"[""video/no_line_1_3cut.mp4""]",1,no_34,video/no_line_1_3cut.mp4,2022-01-24 04:07:39,107.5.88.103,"Mozilla/5.0 (Windows NT 10.0; Win64; x64) AppleWebKit/537.36 (KHTML, like Gecko) Chrome/97.0.4692.71 Safari/537.36",WebKit,Chrome,97.0.4692.71,Windows,10.0,4d5ed8b1f2f00df59eccea4670b22524
10,1,"""","""","""","""","""",video-button-response,18,1097818,0.0-18.0,2a206lrr6,51176,"[""video/yes_line_10_1cut.mp4""]",0,yes_1,video/yes_line_10_1cut.mp4,2022-01-24 04:07:39,107.5.88.103,"Mozilla/5.0 (Windows NT 10.0; Win64; x64) AppleWebKit/537.36 (KHTML, like Gecko) Chrome/97.0.4692.71 Safari/537.36",WebKit,Chrome,97.0.4692.71,Windows,10.0,4d5ed8b1f2f00df59eccea4670b22524
10,1,"""","""","""","""","""",video-button-response,19,1115033,0.0-19.0,2a206lrr6,17212,"[""video/no_line_3_8cut.mp4""]",1,no_8,video/no_line_3_8cut.mp4,2022-01-24 04:07:39,107.5.88.103,"Mozilla/5.0 (Windows NT 10.0; Win64; x64) AppleWebKit/537.36 (KHTML, like Gecko) Chrome/97.0.4692.71 Safari/537.36",WebKit,Chrome,97.0.4692.71,Windows,10.0,4d5ed8b1f2f00df59eccea4670b22524
10,1,"""","""","""","""","""",video-button-response,20,1173380,0.0-20.0,2a206lrr6,58345,"[""video/yes_line_8_8cut.mp4""]",1,yes_8,video/yes_line_8_8cut.mp4,2022-01-24 04:07:39,107.5.88.103,"Mozilla/5.0 (Windows NT 10.0; Win64; x64) AppleWebKit/537.36 (KHTML, like Gecko) Chrome/97.0.4692.71 Safari/537.36",WebKit,Chrome,97.0.4692.71,Windows,10.0,4d5ed8b1f2f00df59eccea4670b22524
10,1,"""","""","""","""","""",video-button-response,21,1192802,0.0-21.0,2a206lrr6,19419,"[""video/no_line_3_1cut.mp4""]",1,no_1,video/no_line_3_1cut.mp4,2022-01-24 04:07:39,107.5.88.103,"Mozilla/5.0 (Windows NT 10.0; Win64; x64) AppleWebKit/537.36 (KHTML, like Gecko) Chrome/97.0.4692.71 Safari/537.36",WebKit,Chrome,97.0.4692.71,Windows,10.0,4d5ed8b1f2f00df59eccea4670b22524
10,1,"""","""","""","""","""",video-button-response,22,1223914,0.0-22.0,2a206lrr6,31110,"[""video/yes_line_9_8cut.mp4""]",1,yes_8,video/yes_line_9_8cut.mp4,2022-01-24 04:07:39,107.5.88.103,"Mozilla/5.0 (Windows NT 10.0; Win64; x64) AppleWebKit/537.36 (KHTML, like Gecko) Chrome/97.0.4692.71 Safari/537.36",WebKit,Chrome,97.0.4692.71,Windows,10.0,4d5ed8b1f2f00df59eccea4670b22524
10,1,"""","""","""","""","""",video-button-response,23,1238640,0.0-23.0,2a206lrr6,14723,"[""video/no_line_3_3cut.mp4""]",1,no_34,video/no_line_3_3cut.mp4,2022-01-24 04:07:39,107.5.88.103,"Mozilla/5.0 (Windows NT 10.0; Win64; x64) AppleWebKit/537.36 (KHTML, like Gecko) Chrome/97.0.4692.71 Safari/537.36",WebKit,Chrome,97.0.4692.71,Windows,10.0,4d5ed8b1f2f00df59eccea4670b22524
10,1,"""","""","""","""","""",video-button-response,24,1264370,0.0-24.0,2a206lrr6,25728,"[""video/yes_line_9_3cut.mp4""]",1,yes_34,video/yes_line_9_3cut.mp4,2022-01-24 04:07:39,107.5.88.103,"Mozilla/5.0 (Windows NT 10.0; Win64; x64) AppleWebKit/537.36 (KHTML, like Gecko) Chrome/97.0.4692.71 Safari/537.36",WebKit,Chrome,97.0.4692.71,Windows,10.0,4d5ed8b1f2f00df59eccea4670b22524
10,1,"""","""","""","""","""",video-button-response,25,1300824,0.0-25.0,2a206lrr6,36451,"[""video/yes_line_8_1cut.mp4""]",1,yes_1,video/yes_line_8_1cut.mp4,2022-01-24 04:07:39,107.5.88.103,"Mozilla/5.0 (Windows NT 10.0; Win64; x64) AppleWebKit/537.36 (KHTML, like Gecko) Chrome/97.0.4692.71 Safari/537.36",WebKit,Chrome,97.0.4692.71,Windows,10.0,4d5ed8b1f2f00df59eccea4670b22524
10,1,"""","""","""","""","""",video-button-response,26,1356744,0.0-26.0,2a206lrr6,55918,"[""video/yes_line_10_8cut.mp4""]",1,yes_8,video/yes_line_10_8cut.mp4,2022-01-24 04:07:39,107.5.88.103,"Mozilla/5.0 (Windows NT 10.0; Win64; x64) AppleWebKit/537.36 (KHTML, like Gecko) Chrome/97.0.4692.71 Safari/537.36",WebKit,Chrome,97.0.4692.71,Windows,10.0,4d5ed8b1f2f00df59eccea4670b22524
10,1,"""","""","""","""","""",survey-html-form,27,1367347,0.0-27.0,2a206lrr6,10600,"""","[{""name"":""understand"",""value"":""yes""},{""name"":""problems"",""value"":""none""},{""name"":""age"",""value"":""31""},{""name"":""gender"",""value"":""male""},{""name"":""comments"",""value"":""no""}]",debrief,"""",2022-01-24 04:07:39,107.5.88.103,"Mozilla/5.0 (Windows NT 10.0; Win64; x64) AppleWebKit/537.36 (KHTML, like Gecko) Chrome/97.0.4692.71 Safari/537.36",WebKit,Chrome,97.0.4692.71,Windows,10.0,4d5ed8b1f2f00df59eccea4670b22524
10,1,"""","""","""","""","""",html-keyboard-response,28,1384575,0.0-28.0,2a206lrr6,17226,"<div style=""font-size:20px;"">This task is now over. The completion code is: 2a206lrr6 You must press space after you have the completion code to finish. Thank you for your participation! </div>", ,"""","""",2022-01-24 04:07:39,107.5.88.103,"Mozilla/5.0 (Windows NT 10.0; Win64; x64) AppleWebKit/537.36 (KHTML, like Gecko) Chrome/97.0.4692.71 Safari/537.36",WebKit,Chrome,97.0.4692.71,Windows,10.0,4d5ed8b1f2f00df59eccea4670b22524
17,1,true,false,[],[],[],preload,0,1418,0.0-0.0,uobkqjws0,"""","""","""","""","""",2022-01-24 04:08:29,68.248.147.9,"Mozilla/5.0 (Windows NT 10.0; Win64; x64) AppleWebKit/537.36 (KHTML, like Gecko) Chrome/97.0.4692.71 Safari/537.36",WebKit,Chrome,97.0.4692.71,Windows,10.0,4d5ed8b1f2f00df59eccea4670b22524
17,1,"""","""","""","""","""",html-keyboard-response,1,8290,0.0-1.0,uobkqjws0,6861,"<p style=""text-align:center;width:700px;""> Welcome to the experiment! This study takes most people around 20 minutes to complete. Please complete it in one sitting.</p>", ,"""","""",2022-01-24 04:08:29,68.248.147.9,"Mozilla/5.0 (Windows NT 10.0; Win64; x64) AppleWebKit/537.36 (KHTML, like Gecko) Chrome/97.0.4692.71 Safari/537.36",WebKit,Chrome,97.0.4692.71,Windows,10.0,4d5ed8b1f2f00df59eccea4670b22524
17,1,"""","""","""","""","""",html-keyboard-response,2,29429,0.0-2.0,uobkqjws0,21138,"<p style = ""font-size:16px;"">MIT Computational Cognitive Science Lab</p><h4>Press the 'y' key to consent.</h4><div style = ""background-color:#f2f2f2;""><h3>Informed Consent Form</h3><div style=""text-align:left;width:700px;""><p style = ""font-size:16px;"">In this HIT, you will be asked to read a set of instructions that describe a particular scenario, and you will then be asked to perform a simple task relating to that scenario. There will also be comprehension and attention checks. Participants who do not answer these checks correctly cannot be approved. In order to get credit for this HIT, you must read all the questions fully and answer honestly. You may only complete this HIT once. If you complete this HIT multiple times, you will be rejected.</p><p style = ""font-size:16px;"">This HIT is part of a MIT scientific research project. Your decision to complete this HIT is voluntary. There is no way for us to identify you. The only information we will have, in addition to your responses, is the time at which you completed the survey. The results of the research may be presented at scientific meetings or published in scientific journals. Pressing the ""Y"" key indicates that you are at least 18 years of age, and agree to complete this HIT voluntarily. Press the ""Y"" key to confirm your agreement and continue.</p></div>",y,"""","""",2022-01-24 04:08:29,68.248.147.9,"Mozilla/5.0 (Windows NT 10.0; Win64; x64) AppleWebKit/537.36 (KHTML, like Gecko) Chrome/97.0.4692.71 Safari/537.36",WebKit,Chrome,97.0.4692.71,Windows,10.0,4d5ed8b1f2f00df59eccea4670b22524
17,1,"""","""","""","""","""",survey-text,3,97068,0.0-3.0,uobkqjws0,67622,"""","{""instructions1"":""Collect one bucket of water for each level""}",instructions,"""",2022-01-24 04:08:29,68.248.147.9,"Mozilla/5.0 (Windows NT 10.0; Win64; x64) AppleWebKit/537.36 (KHTML, like Gecko) Chrome/97.0.4692.71 Safari/537.36",WebKit,Chrome,97.0.4692.71,Windows,10.0,4d5ed8b1f2f00df59eccea4670b22524
17,1,"""","""","""","""","""",survey-text,4,162494,0.0-4.0,uobkqjws0,65409,"""","{""instructions2"":""when all 8 people collect water in bucket""}",instructions,"""",2022-01-24 04:08:29,68.248.147.9,"Mozilla/5.0 (Windows NT 10.0; Win64; x64) AppleWebKit/537.36 (KHTML, like Gecko) Chrome/97.0.4692.71 Safari/537.36",WebKit,Chrome,97.0.4692.71,Windows,10.0,4d5ed8b1f2f00df59eccea4670b22524
17,1,"""","""","""","""","""",survey-text,5,198410,0.0-5.0,uobkqjws0,35910,"""","{""instructions3"":""1""}",instructions,"""",2022-01-24 04:08:29,68.248.147.9,"Mozilla/5.0 (Windows NT 10.0; Win64; x64) AppleWebKit/537.36 (KHTML, like Gecko) Chrome/97.0.4692.71 Safari/537.36",WebKit,Chrome,97.0.4692.71,Windows,10.0,4d5ed8b1f2f00df59eccea4670b22524
17,1,"""","""","""","""","""",video-button-response,6,223988,0.0-6.0,uobkqjws0,25570,"[""video/no_line_3_3cut.mp4""]",1,no_34,video/no_line_3_3cut.mp4,2022-01-24 04:08:29,68.248.147.9,"Mozilla/5.0 (Windows NT 10.0; Win64; x64) AppleWebKit/537.36 (KHTML, like Gecko) Chrome/97.0.4692.71 Safari/537.36",WebKit,Chrome,97.0.4692.71,Windows,10.0,4d5ed8b1f2f00df59eccea4670b22524
17,1,"""","""","""","""","""",video-button-response,7,298643,0.0-7.0,uobkqjws0,74648,"[""video/yes_line_10_1cut.mp4""]",0,yes_1,video/yes_line_10_1cut.mp4,2022-01-24 04:08:29,68.248.147.9,"Mozilla/5.0 (Windows NT 10.0; Win64; x64) AppleWebKit/537.36 (KHTML, like Gecko) Chrome/97.0.4692.71 Safari/537.36",WebKit,Chrome,97.0.4692.71,Windows,10.0,4d5ed8b1f2f00df59eccea4670b22524
17,1,"""","""","""","""","""",video-button-response,8,341574,0.0-8.0,uobkqjws0,42929,"[""video/yes_line_8_3cut.mp4""]",1,yes_34,video/yes_line_8_3cut.mp4,2022-01-24 04:08:29,68.248.147.9,"Mozilla/5.0 (Windows NT 10.0; Win64; x64) AppleWebKit/537.36 (KHTML, like Gecko) Chrome/97.0.4692.71 Safari/537.36",WebKit,Chrome,97.0.4692.71,Windows,10.0,4d5ed8b1f2f00df59eccea4670b22524
17,1,"""","""","""","""","""",video-button-response,9,395715,0.0-9.0,uobkqjws0,54136,"[""video/yes_line_10_3cut.mp4""]",1,yes_34,video/yes_line_10_3cut.mp4,2022-01-24 04:08:29,68.248.147.9,"Mozilla/5.0 (Windows NT 10.0; Win64; x64) AppleWebKit/537.36 (KHTML, like Gecko) Chrome/97.0.4692.71 Safari/537.36",WebKit,Chrome,97.0.4692.71,Windows,10.0,4d5ed8b1f2f00df59eccea4670b22524
17,1,"""","""","""","""","""",video-button-response,10,422969,0.0-10.0,uobkqjws0,27251,"[""video/no_line_2_1cut.mp4""]",1,no_1,video/no_line_2_1cut.mp4,2022-01-24 04:08:29,68.248.147.9,"Mozilla/5.0 (Windows NT 10.0; Win64; x64) AppleWebKit/537.36 (KHTML, like Gecko) Chrome/97.0.4692.71 Safari/537.36",WebKit,Chrome,97.0.4692.71,Windows,10.0,4d5ed8b1f2f00df59eccea4670b22524
17,1,"""","""","""","""","""",video-button-response,11,484352,0.0-11.0,uobkqjws0,61379,"[""video/yes_line_9_8cut.mp4""]",1,yes_8,video/yes_line_9_8cut.mp4,2022-01-24 04:08:29,68.248.147.9,"Mozilla/5.0 (Windows NT 10.0; Win64; x64) AppleWebKit/537.36 (KHTML, like Gecko) Chrome/97.0.4692.71 Safari/537.36",WebKit,Chrome,97.0.4692.71,Windows,10.0,4d5ed8b1f2f00df59eccea4670b22524
17,1,"""","""","""","""","""",video-button-response,12,500158,0.0-12.0,uobkqjws0,15804,"[""video/no_line_2_4cut.mp4""]",1,no_34,video/no_line_2_4cut.mp4,2022-01-24 04:08:29,68.248.147.9,"Mozilla/5.0 (Windows NT 10.0; Win64; x64) AppleWebKit/537.36 (KHTML, like Gecko) Chrome/97.0.4692.71 Safari/537.36",WebKit,Chrome,97.0.4692.71,Windows,10.0,4d5ed8b1f2f00df59eccea4670b22524
17,1,"""","""","""","""","""",video-button-response,13,523712,0.0-13.0,uobkqjws0,23550,"[""video/yes_line_7_4cut.mp4""]",0,yes_34,video/yes_line_7_4cut.mp4,2022-01-24 04:08:29,68.248.147.9,"Mozilla/5.0 (Windows NT 10.0; Win64; x64) AppleWebKit/537.36 (KHTML, like Gecko) Chrome/97.0.4692.71 Safari/537.36",WebKit,Chrome,97.0.4692.71,Windows,10.0,4d5ed8b1f2f00df59eccea4670b22524
17,1,"""","""","""","""","""",video-button-response,14,561172,0.0-14.0,uobkqjws0,37457,"[""video/yes_line_8_1cut.mp4""]",0,yes_1,video/yes_line_8_1cut.mp4,2022-01-24 04:08:29,68.248.147.9,"Mozilla/5.0 (Windows NT 10.0; Win64; x64) AppleWebKit/537.36 (KHTML, like Gecko) Chrome/97.0.4692.71 Safari/537.36",WebKit,Chrome,97.0.4692.71,Windows,10.0,4d5ed8b1f2f00df59eccea4670b22524
17,1,"""","""","""","""","""",video-button-response,15,614468,0.0-15.0,uobkqjws0,53290,"[""video/yes_line_8_8cut.mp4""]",0,yes_8,video/yes_line_8_8cut.mp4,2022-01-24 04:08:29,68.248.147.9,"Mozilla/5.0 (Windows NT 10.0; Win64; x64) AppleWebKit/537.36 (KHTML, like Gecko) Chrome/97.0.4692.71 Safari/537.36",WebKit,Chrome,97.0.4692.71,Windows,10.0,4d5ed8b1f2f00df59eccea4670b22524
17,1,"""","""","""","""","""",video-button-response,16,633333,0.0-16.0,uobkqjws0,18860,"[""video/no_line_3_1cut.mp4""]",1,no_1,video/no_line_3_1cut.mp4,2022-01-24 04:08:29,68.248.147.9,"Mozilla/5.0 (Windows NT 10.0; Win64; x64) AppleWebKit/537.36 (KHTML, like Gecko) Chrome/97.0.4692.71 Safari/537.36",WebKit,Chrome,97.0.4692.71,Windows,10.0,4d5ed8b1f2f00df59eccea4670b22524
17,1,"""","""","""","""","""",video-button-response,17,650747,0.0-17.0,uobkqjws0,17406,"[""video/no_line_1_8cut.mp4""]",1,no_8,video/no_line_1_8cut.mp4,2022-01-24 04:08:29,68.248.147.9,"Mozilla/5.0 (Windows NT 10.0; Win64; x64) AppleWebKit/537.36 (KHTML, like Gecko) Chrome/97.0.4692.71 Safari/537.36",WebKit,Chrome,97.0.4692.71,Windows,10.0,4d5ed8b1f2f00df59eccea4670b22524
17,1,"""","""","""","""","""",video-button-response,18,669247,0.0-18.0,uobkqjws0,18498,"[""video/no_line_3_8cut.mp4""]",1,no_8,video/no_line_3_8cut.mp4,2022-01-24 04:08:29,68.248.147.9,"Mozilla/5.0 (Windows NT 10.0; Win64; x64) AppleWebKit/537.36 (KHTML, like Gecko) Chrome/97.0.4692.71 Safari/537.36",WebKit,Chrome,97.0.4692.71,Windows,10.0,4d5ed8b1f2f00df59eccea4670b22524
17,1,"""","""","""","""","""",video-button-response,19,705451,0.0-19.0,uobkqjws0,36200,"[""video/yes_line_9_3cut.mp4""]",1,yes_34,video/yes_line_9_3cut.mp4,2022-01-24 04:08:29,68.248.147.9,"Mozilla/5.0 (Windows NT 10.0; Win64; x64) AppleWebKit/537.36 (KHTML, like Gecko) Chrome/97.0.4692.71 Safari/537.36",WebKit,Chrome,97.0.4692.71,Windows,10.0,4d5ed8b1f2f00df59eccea4670b22524
17,1,"""","""","""","""","""",video-button-response,20,728039,0.0-20.0,uobkqjws0,22586,"[""video/yes_line_9_1cut.mp4""]",0,yes_1,video/yes_line_9_1cut.mp4,2022-01-24 04:08:29,68.248.147.9,"Mozilla/5.0 (Windows NT 10.0; Win64; x64) AppleWebKit/537.36 (KHTML, like Gecko) Chrome/97.0.4692.71 Safari/537.36",WebKit,Chrome,97.0.4692.71,Windows,10.0,4d5ed8b1f2f00df59eccea4670b22524
17,1,"""","""","""","""","""",video-button-response,21,751815,0.0-21.0,uobkqjws0,23771,"[""video/no_line_2_8cut.mp4""]",1,no_8,video/no_line_2_8cut.mp4,2022-01-24 04:08:29,68.248.147.9,"Mozilla/5.0 (Windows NT 10.0; Win64; x64) AppleWebKit/537.36 (KHTML, like Gecko) Chrome/97.0.4692.71 Safari/537.36",WebKit,Chrome,97.0.4692.71,Windows,10.0,4d5ed8b1f2f00df59eccea4670b22524
17,1,"""","""","""","""","""",video-button-response,22,777219,0.0-22.0,uobkqjws0,25401,"[""video/yes_line_7_8cut.mp4""]",1,yes_8,video/yes_line_7_8cut.mp4,2022-01-24 04:08:29,68.248.147.9,"Mozilla/5.0 (Windows NT 10.0; Win64; x64) AppleWebKit/537.36 (KHTML, like Gecko) Chrome/97.0.4692.71 Safari/537.36",WebKit,Chrome,97.0.4692.71,Windows,10.0,4d5ed8b1f2f00df59eccea4670b22524
17,1,"""","""","""","""","""",video-button-response,23,794188,0.0-23.0,uobkqjws0,16961,"[""video/no_line_1_3cut.mp4""]",1,no_34,video/no_line_1_3cut.mp4,2022-01-24 04:08:29,68.248.147.9,"Mozilla/5.0 (Windows NT 10.0; Win64; x64) AppleWebKit/537.36 (KHTML, like Gecko) Chrome/97.0.4692.71 Safari/537.36",WebKit,Chrome,97.0.4692.71,Windows,10.0,4d5ed8b1f2f00df59eccea4670b22524
17,1,"""","""","""","""","""",video-button-response,24,815901,0.0-24.0,uobkqjws0,21710,"[""video/yes_line_7_1cut.mp4""]",0,yes_1,video/yes_line_7_1cut.mp4,2022-01-24 04:08:29,68.248.147.9,"Mozilla/5.0 (Windows NT 10.0; Win64; x64) AppleWebKit/537.36 (KHTML, like Gecko) Chrome/97.0.4692.71 Safari/537.36",WebKit,Chrome,97.0.4692.71,Windows,10.0,4d5ed8b1f2f00df59eccea4670b22524
17,1,"""","""","""","""","""",video-button-response,25,875239,0.0-25.0,uobkqjws0,59332,"[""video/yes_line_10_8cut.mp4""]",0,yes_8,video/yes_line_10_8cut.mp4,2022-01-24 04:08:29,68.248.147.9,"Mozilla/5.0 (Windows NT 10.0; Win64; x64) AppleWebKit/537.36 (KHTML, like Gecko) Chrome/97.0.4692.71 Safari/537.36",WebKit,Chrome,97.0.4692.71,Windows,10.0,4d5ed8b1f2f00df59eccea4670b22524
17,1,"""","""","""","""","""",video-button-response,26,896681,0.0-26.0,uobkqjws0,21440,"[""video/no_line_1_1cut.mp4""]",1,no_1,video/no_line_1_1cut.mp4,2022-01-24 04:08:29,68.248.147.9,"Mozilla/5.0 (Windows NT 10.0; Win64; x64) AppleWebKit/537.36 (KHTML, like Gecko) Chrome/97.0.4692.71 Safari/537.36",WebKit,Chrome,97.0.4692.71,Windows,10.0,4d5ed8b1f2f00df59eccea4670b22524
17,1,"""","""","""","""","""",survey-html-form,27,944980,0.0-27.0,uobkqjws0,48295,"""","[{""name"":""understand"",""value"":""yes""},{""name"":""problems"",""value"":""no""},{""name"":""age"",""value"":""54""},{""name"":""gender"",""value"":""female""},{""name"":""comments"",""value"":""Interesting study better than survey""}]",debrief,"""",2022-01-24 04:08:29,68.248.147.9,"Mozilla/5.0 (Windows NT 10.0; Win64; x64) AppleWebKit/537.36 (KHTML, like Gecko) Chrome/97.0.4692.71 Safari/537.36",WebKit,Chrome,97.0.4692.71,Windows,10.0,4d5ed8b1f2f00df59eccea4670b22524
17,1,"""","""","""","""","""",html-keyboard-response,28,984379,0.0-28.0,uobkqjws0,39396,"<div style=""font-size:20px;"">This task is now over. The completion code is: uobkqjws0 You must press space after you have the completion code to finish. Thank you for your participation! </div>", ,"""","""",2022-01-24 04:08:29,68.248.147.9,"Mozilla/5.0 (Windows NT 10.0; Win64; x64) AppleWebKit/537.36 (KHTML, like Gecko) Chrome/97.0.4692.71 Safari/537.36",WebKit,Chrome,97.0.4692.71,Windows,10.0,4d5ed8b1f2f00df59eccea4670b22524
13,1,true,false,[],[],[],preload,0,2181,0.0-0.0,bwj01feos,"""","""","""","""","""",2022-01-24 04:08:01,108.73.95.238,"Mozilla/5.0 (Windows NT 6.3; Win64; x64) AppleWebKit/537.36 (KHTML, like Gecko) Chrome/97.0.4692.99 Safari/537.36",WebKit,Chrome,97.0.4692.99,Windows,6.3,4d5ed8b1f2f00df59eccea4670b22524
13,1,"""","""","""","""","""",html-keyboard-response,1,84908,0.0-1.0,bwj01feos,82721,"<p style=""text-align:center;width:700px;""> Welcome to the experiment! This study takes most people around 20 minutes to complete. Please complete it in one sitting.</p>", ,"""","""",2022-01-24 04:08:01,108.73.95.238,"Mozilla/5.0 (Windows NT 6.3; Win64; x64) AppleWebKit/537.36 (KHTML, like Gecko) Chrome/97.0.4692.99 Safari/537.36",WebKit,Chrome,97.0.4692.99,Windows,6.3,4d5ed8b1f2f00df59eccea4670b22524
13,1,"""","""","""","""","""",html-keyboard-response,2,89856,0.0-2.0,bwj01feos,4946,"<p style = ""font-size:16px;"">MIT Computational Cognitive Science Lab</p><h4>Press the 'y' key to consent.</h4><div style = ""background-color:#f2f2f2;""><h3>Informed Consent Form</h3><div style=""text-align:left;width:700px;""><p style = ""font-size:16px;"">In this HIT, you will be asked to read a set of instructions that describe a particular scenario, and you will then be asked to perform a simple task relating to that scenario. There will also be comprehension and attention checks. Participants who do not answer these checks correctly cannot be approved. In order to get credit for this HIT, you must read all the questions fully and answer honestly. You may only complete this HIT once. If you complete this HIT multiple times, you will be rejected.</p><p style = ""font-size:16px;"">This HIT is part of a MIT scientific research project. Your decision to complete this HIT is voluntary. There is no way for us to identify you. The only information we will have, in addition to your responses, is the time at which you completed the survey. The results of the research may be presented at scientific meetings or published in scientific journals. Pressing the ""Y"" key indicates that you are at least 18 years of age, and agree to complete this HIT voluntarily. Press the ""Y"" key to confirm your agreement and continue.</p></div>",y,"""","""",2022-01-24 04:08:01,108.73.95.238,"Mozilla/5.0 (Windows NT 6.3; Win64; x64) AppleWebKit/537.36 (KHTML, like Gecko) Chrome/97.0.4692.99 Safari/537.36",WebKit,Chrome,97.0.4692.99,Windows,6.3,4d5ed8b1f2f00df59eccea4670b22524
13,1,"""","""","""","""","""",survey-text,3,150148,0.0-3.0,bwj01feos,60281,"""","{""instructions1"":""collect water from a water source and bring it back to the wooden storage buckets.""}",instructions,"""",2022-01-24 04:08:01,108.73.95.238,"Mozilla/5.0 (Windows NT 6.3; Win64; x64) AppleWebKit/537.36 (KHTML, like Gecko) Chrome/97.0.4692.99 Safari/537.36",WebKit,Chrome,97.0.4692.99,Windows,6.3,4d5ed8b1f2f00df59eccea4670b22524
13,1,"""","""","""","""","""",survey-text,4,253212,0.0-4.0,bwj01feos,103054,"""","{""instructions2"":""When all 8 people collect water and store it in a wooden storage bucket.""}",instructions,"""",2022-01-24 04:08:01,108.73.95.238,"Mozilla/5.0 (Windows NT 6.3; Win64; x64) AppleWebKit/537.36 (KHTML, like Gecko) Chrome/97.0.4692.99 Safari/537.36",WebKit,Chrome,97.0.4692.99,Windows,6.3,4d5ed8b1f2f00df59eccea4670b22524
13,1,"""","""","""","""","""",survey-text,5,295581,0.0-5.0,bwj01feos,42361,"""","{""instructions3"":""1 person""}",instructions,"""",2022-01-24 04:08:01,108.73.95.238,"Mozilla/5.0 (Windows NT 6.3; Win64; x64) AppleWebKit/537.36 (KHTML, like Gecko) Chrome/97.0.4692.99 Safari/537.36",WebKit,Chrome,97.0.4692.99,Windows,6.3,4d5ed8b1f2f00df59eccea4670b22524
13,1,"""","""","""","""","""",video-button-response,6,347782,0.0-6.0,bwj01feos,52196,"[""video/yes_line_8_1cut.mp4""]",0,yes_1,video/yes_line_8_1cut.mp4,2022-01-24 04:08:01,108.73.95.238,"Mozilla/5.0 (Windows NT 6.3; Win64; x64) AppleWebKit/537.36 (KHTML, like Gecko) Chrome/97.0.4692.99 Safari/537.36",WebKit,Chrome,97.0.4692.99,Windows,6.3,4d5ed8b1f2f00df59eccea4670b22524
13,1,"""","""","""","""","""",video-button-response,7,378338,0.0-7.0,bwj01feos,30550,"[""video/yes_line_7_1cut.mp4""]",0,yes_1,video/yes_line_7_1cut.mp4,2022-01-24 04:08:01,108.73.95.238,"Mozilla/5.0 (Windows NT 6.3; Win64; x64) AppleWebKit/537.36 (KHTML, like Gecko) Chrome/97.0.4692.99 Safari/537.36",WebKit,Chrome,97.0.4692.99,Windows,6.3,4d5ed8b1f2f00df59eccea4670b22524
13,1,"""","""","""","""","""",video-button-response,8,402212,0.0-8.0,bwj01feos,23871,"[""video/no_line_3_8cut.mp4""]",1,no_8,video/no_line_3_8cut.mp4,2022-01-24 04:08:01,108.73.95.238,"Mozilla/5.0 (Windows NT 6.3; Win64; x64) AppleWebKit/537.36 (KHTML, like Gecko) Chrome/97.0.4692.99 Safari/537.36",WebKit,Chrome,97.0.4692.99,Windows,6.3,4d5ed8b1f2f00df59eccea4670b22524
13,1,"""","""","""","""","""",video-button-response,9,446532,0.0-9.0,bwj01feos,44313,"[""video/no_line_3_1cut.mp4""]",1,no_1,video/no_line_3_1cut.mp4,2022-01-24 04:08:01,108.73.95.238,"Mozilla/5.0 (Windows NT 6.3; Win64; x64) AppleWebKit/537.36 (KHTML, like Gecko) Chrome/97.0.4692.99 Safari/537.36",WebKit,Chrome,97.0.4692.99,Windows,6.3,4d5ed8b1f2f00df59eccea4670b22524
13,1,"""","""","""","""","""",video-button-response,10,478856,0.0-10.0,bwj01feos,32321,"[""video/no_line_1_8cut.mp4""]",1,no_8,video/no_line_1_8cut.mp4,2022-01-24 04:08:01,108.73.95.238,"Mozilla/5.0 (Windows NT 6.3; Win64; x64) AppleWebKit/537.36 (KHTML, like Gecko) Chrome/97.0.4692.99 Safari/537.36",WebKit,Chrome,97.0.4692.99,Windows,6.3,4d5ed8b1f2f00df59eccea4670b22524
13,1,"""","""","""","""","""",video-button-response,11,514839,0.0-11.0,bwj01feos,35979,"[""video/yes_line_9_1cut.mp4""]",0,yes_1,video/yes_line_9_1cut.mp4,2022-01-24 04:08:01,108.73.95.238,"Mozilla/5.0 (Windows NT 6.3; Win64; x64) AppleWebKit/537.36 (KHTML, like Gecko) Chrome/97.0.4692.99 Safari/537.36",WebKit,Chrome,97.0.4692.99,Windows,6.3,4d5ed8b1f2f00df59eccea4670b22524
13,1,"""","""","""","""","""",video-button-response,12,536503,0.0-12.0,bwj01feos,21661,"[""video/no_line_3_3cut.mp4""]",1,no_34,video/no_line_3_3cut.mp4,2022-01-24 04:08:01,108.73.95.238,"Mozilla/5.0 (Windows NT 6.3; Win64; x64) AppleWebKit/537.36 (KHTML, like Gecko) Chrome/97.0.4692.99 Safari/537.36",WebKit,Chrome,97.0.4692.99,Windows,6.3,4d5ed8b1f2f00df59eccea4670b22524
13,1,"""","""","""","""","""",video-button-response,13,654253,0.0-13.0,bwj01feos,117746,"[""video/yes_line_10_8cut.mp4""]",0,yes_8,video/yes_line_10_8cut.mp4,2022-01-24 04:08:01,108.73.95.238,"Mozilla/5.0 (Windows NT 6.3; Win64; x64) AppleWebKit/537.36 (KHTML, like Gecko) Chrome/97.0.4692.99 Safari/537.36",WebKit,Chrome,97.0.4692.99,Windows,6.3,4d5ed8b1f2f00df59eccea4670b22524
13,1,"""","""","""","""","""",video-button-response,14,712592,0.0-14.0,bwj01feos,58337,"[""video/yes_line_7_8cut.mp4""]",1,yes_8,video/yes_line_7_8cut.mp4,2022-01-24 04:08:01,108.73.95.238,"Mozilla/5.0 (Windows NT 6.3; Win64; x64) AppleWebKit/537.36 (KHTML, like Gecko) Chrome/97.0.4692.99 Safari/537.36",WebKit,Chrome,97.0.4692.99,Windows,6.3,4d5ed8b1f2f00df59eccea4670b22524
13,1,"""","""","""","""","""",video-button-response,15,787838,0.0-15.0,bwj01feos,75238,"[""video/yes_line_10_1cut.mp4""]",0,yes_1,video/yes_line_10_1cut.mp4,2022-01-24 04:08:01,108.73.95.238,"Mozilla/5.0 (Windows NT 6.3; Win64; x64) AppleWebKit/537.36 (KHTML, like Gecko) Chrome/97.0.4692.99 Safari/537.36",WebKit,Chrome,97.0.4692.99,Windows,6.3,4d5ed8b1f2f00df59eccea4670b22524
13,1,"""","""","""","""","""",video-button-response,16,826200,0.0-16.0,bwj01feos,38358,"[""video/yes_line_9_3cut.mp4""]",1,yes_34,video/yes_line_9_3cut.mp4,2022-01-24 04:08:01,108.73.95.238,"Mozilla/5.0 (Windows NT 6.3; Win64; x64) AppleWebKit/537.36 (KHTML, like Gecko) Chrome/97.0.4692.99 Safari/537.36",WebKit,Chrome,97.0.4692.99,Windows,6.3,4d5ed8b1f2f00df59eccea4670b22524
13,1,"""","""","""","""","""",video-button-response,17,920817,0.0-17.0,bwj01feos,94614,"[""video/no_line_1_1cut.mp4""]",1,no_1,video/no_line_1_1cut.mp4,2022-01-24 04:08:01,108.73.95.238,"Mozilla/5.0 (Windows NT 6.3; Win64; x64) AppleWebKit/537.36 (KHTML, like Gecko) Chrome/97.0.4692.99 Safari/537.36",WebKit,Chrome,97.0.4692.99,Windows,6.3,4d5ed8b1f2f00df59eccea4670b22524
13,1,"""","""","""","""","""",video-button-response,18,1014432,0.0-18.0,bwj01feos,93613,"[""video/yes_line_10_3cut.mp4""]",0,yes_34,video/yes_line_10_3cut.mp4,2022-01-24 04:08:01,108.73.95.238,"Mozilla/5.0 (Windows NT 6.3; Win64; x64) AppleWebKit/537.36 (KHTML, like Gecko) Chrome/97.0.4692.99 Safari/537.36",WebKit,Chrome,97.0.4692.99,Windows,6.3,4d5ed8b1f2f00df59eccea4670b22524
13,1,"""","""","""","""","""",video-button-response,19,1100170,0.0-19.0,bwj01feos,85733,"[""video/yes_line_8_8cut.mp4""]",1,yes_8,video/yes_line_8_8cut.mp4,2022-01-24 04:08:01,108.73.95.238,"Mozilla/5.0 (Windows NT 6.3; Win64; x64) AppleWebKit/537.36 (KHTML, like Gecko) Chrome/97.0.4692.99 Safari/537.36",WebKit,Chrome,97.0.4692.99,Windows,6.3,4d5ed8b1f2f00df59eccea4670b22524
13,1,"""","""","""","""","""",video-button-response,20,1124239,0.0-20.0,bwj01feos,24066,"[""video/no_line_2_8cut.mp4""]",1,no_8,video/no_line_2_8cut.mp4,2022-01-24 04:08:01,108.73.95.238,"Mozilla/5.0 (Windows NT 6.3; Win64; x64) AppleWebKit/537.36 (KHTML, like Gecko) Chrome/97.0.4692.99 Safari/537.36",WebKit,Chrome,97.0.4692.99,Windows,6.3,4d5ed8b1f2f00df59eccea4670b22524
13,1,"""","""","""","""","""",video-button-response,21,1152300,0.0-21.0,bwj01feos,28057,"[""video/no_line_2_4cut.mp4""]",1,no_34,video/no_line_2_4cut.mp4,2022-01-24 04:08:01,108.73.95.238,"Mozilla/5.0 (Windows NT 6.3; Win64; x64) AppleWebKit/537.36 (KHTML, like Gecko) Chrome/97.0.4692.99 Safari/537.36",WebKit,Chrome,97.0.4692.99,Windows,6.3,4d5ed8b1f2f00df59eccea4670b22524
13,1,"""","""","""","""","""",video-button-response,22,1178552,0.0-22.0,bwj01feos,26249,"[""video/no_line_2_1cut.mp4""]",1,no_1,video/no_line_2_1cut.mp4,2022-01-24 04:08:01,108.73.95.238,"Mozilla/5.0 (Windows NT 6.3; Win64; x64) AppleWebKit/537.36 (KHTML, like Gecko) Chrome/97.0.4692.99 Safari/537.36",WebKit,Chrome,97.0.4692.99,Windows,6.3,4d5ed8b1f2f00df59eccea4670b22524
13,1,"""","""","""","""","""",video-button-response,23,1223832,0.0-23.0,bwj01feos,45273,"[""video/yes_line_9_8cut.mp4""]",1,yes_8,video/yes_line_9_8cut.mp4,2022-01-24 04:08:01,108.73.95.238,"Mozilla/5.0 (Windows NT 6.3; Win64; x64) AppleWebKit/537.36 (KHTML, like Gecko) Chrome/97.0.4692.99 Safari/537.36",WebKit,Chrome,97.0.4692.99,Windows,6.3,4d5ed8b1f2f00df59eccea4670b22524
13,1,"""","""","""","""","""",video-button-response,24,1269891,0.0-24.0,bwj01feos,46057,"[""video/yes_line_7_4cut.mp4""]",0,yes_34,video/yes_line_7_4cut.mp4,2022-01-24 04:08:01,108.73.95.238,"Mozilla/5.0 (Windows NT 6.3; Win64; x64) AppleWebKit/537.36 (KHTML, like Gecko) Chrome/97.0.4692.99 Safari/537.36",WebKit,Chrome,97.0.4692.99,Windows,6.3,4d5ed8b1f2f00df59eccea4670b22524
13,1,"""","""","""","""","""",video-button-response,25,1338663,0.0-25.0,bwj01feos,68768,"[""video/yes_line_8_3cut.mp4""]",1,yes_34,video/yes_line_8_3cut.mp4,2022-01-24 04:08:01,108.73.95.238,"Mozilla/5.0 (Windows NT 6.3; Win64; x64) AppleWebKit/537.36 (KHTML, like Gecko) Chrome/97.0.4692.99 Safari/537.36",WebKit,Chrome,97.0.4692.99,Windows,6.3,4d5ed8b1f2f00df59eccea4670b22524
13,1,"""","""","""","""","""",video-button-response,26,1363261,0.0-26.0,bwj01feos,24595,"[""video/no_line_1_3cut.mp4""]",1,no_34,video/no_line_1_3cut.mp4,2022-01-24 04:08:01,108.73.95.238,"Mozilla/5.0 (Windows NT 6.3; Win64; x64) AppleWebKit/537.36 (KHTML, like Gecko) Chrome/97.0.4692.99 Safari/537.36",WebKit,Chrome,97.0.4692.99,Windows,6.3,4d5ed8b1f2f00df59eccea4670b22524
13,1,"""","""","""","""","""",survey-html-form,27,1378053,0.0-27.0,bwj01feos,14788,"""","[{""name"":""understand"",""value"":""yes""},{""name"":""problems"",""value"":""No""},{""name"":""age"",""value"":""47""},{""name"":""gender"",""value"":""male""},{""name"":""comments"",""value"":""A3FGT6EU39C6S4""}]",debrief,"""",2022-01-24 04:08:01,108.73.95.238,"Mozilla/5.0 (Windows NT 6.3; Win64; x64) AppleWebKit/537.36 (KHTML, like Gecko) Chrome/97.0.4692.99 Safari/537.36",WebKit,Chrome,97.0.4692.99,Windows,6.3,4d5ed8b1f2f00df59eccea4670b22524
13,1,"""","""","""","""","""",html-keyboard-response,28,1477020,0.0-28.0,bwj01feos,98966,"<div style=""font-size:20px;"">This task is now over. The completion code is: bwj01feos You must press space after you have the completion code to finish. Thank you for your participation! </div>", ,"""","""",2022-01-24 04:08:01,108.73.95.238,"Mozilla/5.0 (Windows NT 6.3; Win64; x64) AppleWebKit/537.36 (KHTML, like Gecko) Chrome/97.0.4692.99 Safari/537.36",WebKit,Chrome,97.0.4692.99,Windows,6.3,4d5ed8b1f2f00df59eccea4670b22524
2,1,true,false,[],[],[],preload,0,2261,0.0-0.0,jwd3phdlb,"""","""","""","""","""",2022-01-24 04:06:49,69.237.15.21,"Mozilla/5.0 (Windows NT 10.0; Win64; x64) AppleWebKit/537.36 (KHTML, like Gecko) Chrome/97.0.4692.99 Safari/537.36",WebKit,Chrome,97.0.4692.99,Windows,10.0,4d5ed8b1f2f00df59eccea4670b22524
2,1,"""","""","""","""","""",html-keyboard-response,1,8414,0.0-1.0,jwd3phdlb,6150,"<p style=""text-align:center;width:700px;""> Welcome to the experiment! This study takes most people around 20 minutes to complete. Please complete it in one sitting.</p>", ,"""","""",2022-01-24 04:06:49,69.237.15.21,"Mozilla/5.0 (Windows NT 10.0; Win64; x64) AppleWebKit/537.36 (KHTML, like Gecko) Chrome/97.0.4692.99 Safari/537.36",WebKit,Chrome,97.0.4692.99,Windows,10.0,4d5ed8b1f2f00df59eccea4670b22524
2,1,"""","""","""","""","""",html-keyboard-response,2,12838,0.0-2.0,jwd3phdlb,4423,"<p style = ""font-size:16px;"">MIT Computational Cognitive Science Lab</p><h4>Press the 'y' key to consent.</h4><div style = ""background-color:#f2f2f2;""><h3>Informed Consent Form</h3><div style=""text-align:left;width:700px;""><p style = ""font-size:16px;"">In this HIT, you will be asked to read a set of instructions that describe a particular scenario, and you will then be asked to perform a simple task relating to that scenario. There will also be comprehension and attention checks. Participants who do not answer these checks correctly cannot be approved. In order to get credit for this HIT, you must read all the questions fully and answer honestly. You may only complete this HIT once. If you complete this HIT multiple times, you will be rejected.</p><p style = ""font-size:16px;"">This HIT is part of a MIT scientific research project. Your decision to complete this HIT is voluntary. There is no way for us to identify you. The only information we will have, in addition to your responses, is the time at which you completed the survey. The results of the research may be presented at scientific meetings or published in scientific journals. Pressing the ""Y"" key indicates that you are at least 18 years of age, and agree to complete this HIT voluntarily. Press the ""Y"" key to confirm your agreement and continue.</p></div>",y,"""","""",2022-01-24 04:06:49,69.237.15.21,"Mozilla/5.0 (Windows NT 10.0; Win64; x64) AppleWebKit/537.36 (KHTML, like Gecko) Chrome/97.0.4692.99 Safari/537.36",WebKit,Chrome,97.0.4692.99,Windows,10.0,4d5ed8b1f2f00df59eccea4670b22524
2,1,"""","""","""","""","""",survey-text,3,66350,0.0-3.0,jwd3phdlb,53507,"""","{""instructions1"":""To collect buckets of water and bring them to the storage buckets as quickly as possible""}",instructions,"""",2022-01-24 04:06:49,69.237.15.21,"Mozilla/5.0 (Windows NT 10.0; Win64; x64) AppleWebKit/537.36 (KHTML, like Gecko) Chrome/97.0.4692.99 Safari/537.36",WebKit,Chrome,97.0.4692.99,Windows,10.0,4d5ed8b1f2f00df59eccea4670b22524
2,1,"""","""","""","""","""",survey-text,4,162062,0.0-4.0,jwd3phdlb,95705,"""","{""instructions2"":""When all 8 players collect and store water""}",instructions,"""",2022-01-24 04:06:49,69.237.15.21,"Mozilla/5.0 (Windows NT 10.0; Win64; x64) AppleWebKit/537.36 (KHTML, like Gecko) Chrome/97.0.4692.99 Safari/537.36",WebKit,Chrome,97.0.4692.99,Windows,10.0,4d5ed8b1f2f00df59eccea4670b22524
2,1,"""","""","""","""","""",survey-text,5,178142,0.0-5.0,jwd3phdlb,16077,"""","{""instructions3"":""1""}",instructions,"""",2022-01-24 04:06:49,69.237.15.21,"Mozilla/5.0 (Windows NT 10.0; Win64; x64) AppleWebKit/537.36 (KHTML, like Gecko) Chrome/97.0.4692.99 Safari/537.36",WebKit,Chrome,97.0.4692.99,Windows,10.0,4d5ed8b1f2f00df59eccea4670b22524
2,1,"""","""","""","""","""",video-button-response,6,208654,0.0-6.0,jwd3phdlb,30508,"[""video/no_line_1_1cut.mp4""]",1,no_1,video/no_line_1_1cut.mp4,2022-01-24 04:06:49,69.237.15.21,"Mozilla/5.0 (Windows NT 10.0; Win64; x64) AppleWebKit/537.36 (KHTML, like Gecko) Chrome/97.0.4692.99 Safari/537.36",WebKit,Chrome,97.0.4692.99,Windows,10.0,4d5ed8b1f2f00df59eccea4670b22524
2,1,"""","""","""","""","""",video-button-response,7,234430,0.0-7.0,jwd3phdlb,25773,"[""video/yes_line_9_3cut.mp4""]",0,yes_34,video/yes_line_9_3cut.mp4,2022-01-24 04:06:49,69.237.15.21,"Mozilla/5.0 (Windows NT 10.0; Win64; x64) AppleWebKit/537.36 (KHTML, like Gecko) Chrome/97.0.4692.99 Safari/537.36",WebKit,Chrome,97.0.4692.99,Windows,10.0,4d5ed8b1f2f00df59eccea4670b22524
2,1,"""","""","""","""","""",video-button-response,8,245742,0.0-8.0,jwd3phdlb,11309,"[""video/no_line_2_8cut.mp4""]",1,no_8,video/no_line_2_8cut.mp4,2022-01-24 04:06:49,69.237.15.21,"Mozilla/5.0 (Windows NT 10.0; Win64; x64) AppleWebKit/537.36 (KHTML, like Gecko) Chrome/97.0.4692.99 Safari/537.36",WebKit,Chrome,97.0.4692.99,Windows,10.0,4d5ed8b1f2f00df59eccea4670b22524
2,1,"""","""","""","""","""",video-button-response,9,286510,0.0-9.0,jwd3phdlb,40765,"[""video/yes_line_8_8cut.mp4""]",0,yes_8,video/yes_line_8_8cut.mp4,2022-01-24 04:06:49,69.237.15.21,"Mozilla/5.0 (Windows NT 10.0; Win64; x64) AppleWebKit/537.36 (KHTML, like Gecko) Chrome/97.0.4692.99 Safari/537.36",WebKit,Chrome,97.0.4692.99,Windows,10.0,4d5ed8b1f2f00df59eccea4670b22524
2,1,"""","""","""","""","""",video-button-response,10,302622,0.0-10.0,jwd3phdlb,16110,"[""video/yes_line_7_1cut.mp4""]",1,yes_1,video/yes_line_7_1cut.mp4,2022-01-24 04:06:49,69.237.15.21,"Mozilla/5.0 (Windows NT 10.0; Win64; x64) AppleWebKit/537.36 (KHTML, like Gecko) Chrome/97.0.4692.99 Safari/537.36",WebKit,Chrome,97.0.4692.99,Windows,10.0,4d5ed8b1f2f00df59eccea4670b22524
2,1,"""","""","""","""","""",video-button-response,11,337110,0.0-11.0,jwd3phdlb,34484,"[""video/yes_line_10_1cut.mp4""]",1,yes_1,video/yes_line_10_1cut.mp4,2022-01-24 04:06:49,69.237.15.21,"Mozilla/5.0 (Windows NT 10.0; Win64; x64) AppleWebKit/537.36 (KHTML, like Gecko) Chrome/97.0.4692.99 Safari/537.36",WebKit,Chrome,97.0.4692.99,Windows,10.0,4d5ed8b1f2f00df59eccea4670b22524
2,1,"""","""","""","""","""",video-button-response,12,351446,0.0-12.0,jwd3phdlb,14334,"[""video/yes_line_7_4cut.mp4""]",1,yes_34,video/yes_line_7_4cut.mp4,2022-01-24 04:06:49,69.237.15.21,"Mozilla/5.0 (Windows NT 10.0; Win64; x64) AppleWebKit/537.36 (KHTML, like Gecko) Chrome/97.0.4692.99 Safari/537.36",WebKit,Chrome,97.0.4692.99,Windows,10.0,4d5ed8b1f2f00df59eccea4670b22524
2,1,"""","""","""","""","""",video-button-response,13,369206,0.0-13.0,jwd3phdlb,17757,"[""video/no_line_1_8cut.mp4""]",1,no_8,video/no_line_1_8cut.mp4,2022-01-24 04:06:49,69.237.15.21,"Mozilla/5.0 (Windows NT 10.0; Win64; x64) AppleWebKit/537.36 (KHTML, like Gecko) Chrome/97.0.4692.99 Safari/537.36",WebKit,Chrome,97.0.4692.99,Windows,10.0,4d5ed8b1f2f00df59eccea4670b22524
2,1,"""","""","""","""","""",video-button-response,14,382494,0.0-14.0,jwd3phdlb,13285,"[""video/no_line_3_1cut.mp4""]",1,no_1,video/no_line_3_1cut.mp4,2022-01-24 04:06:49,69.237.15.21,"Mozilla/5.0 (Windows NT 10.0; Win64; x64) AppleWebKit/537.36 (KHTML, like Gecko) Chrome/97.0.4692.99 Safari/537.36",WebKit,Chrome,97.0.4692.99,Windows,10.0,4d5ed8b1f2f00df59eccea4670b22524
2,1,"""","""","""","""","""",video-button-response,15,402822,0.0-15.0,jwd3phdlb,20325,"[""video/yes_line_8_3cut.mp4""]",1,yes_34,video/yes_line_8_3cut.mp4,2022-01-24 04:06:49,69.237.15.21,"Mozilla/5.0 (Windows NT 10.0; Win64; x64) AppleWebKit/537.36 (KHTML, like Gecko) Chrome/97.0.4692.99 Safari/537.36",WebKit,Chrome,97.0.4692.99,Windows,10.0,4d5ed8b1f2f00df59eccea4670b22524
2,1,"""","""","""","""","""",video-button-response,16,420558,0.0-16.0,jwd3phdlb,17734,"[""video/no_line_3_8cut.mp4""]",1,no_8,video/no_line_3_8cut.mp4,2022-01-24 04:06:49,69.237.15.21,"Mozilla/5.0 (Windows NT 10.0; Win64; x64) AppleWebKit/537.36 (KHTML, like Gecko) Chrome/97.0.4692.99 Safari/537.36",WebKit,Chrome,97.0.4692.99,Windows,10.0,4d5ed8b1f2f00df59eccea4670b22524
2,1,"""","""","""","""","""",video-button-response,17,429726,0.0-17.0,jwd3phdlb,9165,"[""video/no_line_1_3cut.mp4""]",1,no_34,video/no_line_1_3cut.mp4,2022-01-24 04:06:49,69.237.15.21,"Mozilla/5.0 (Windows NT 10.0; Win64; x64) AppleWebKit/537.36 (KHTML, like Gecko) Chrome/97.0.4692.99 Safari/537.36",WebKit,Chrome,97.0.4692.99,Windows,10.0,4d5ed8b1f2f00df59eccea4670b22524
2,1,"""","""","""","""","""",video-button-response,18,445014,0.0-18.0,jwd3phdlb,15286,"[""video/yes_line_8_1cut.mp4""]",1,yes_1,video/yes_line_8_1cut.mp4,2022-01-24 04:06:49,69.237.15.21,"Mozilla/5.0 (Windows NT 10.0; Win64; x64) AppleWebKit/537.36 (KHTML, like Gecko) Chrome/97.0.4692.99 Safari/537.36",WebKit,Chrome,97.0.4692.99,Windows,10.0,4d5ed8b1f2f00df59eccea4670b22524
2,1,"""","""","""","""","""",video-button-response,19,459710,0.0-19.0,jwd3phdlb,14693,"[""video/no_line_3_3cut.mp4""]",1,no_34,video/no_line_3_3cut.mp4,2022-01-24 04:06:49,69.237.15.21,"Mozilla/5.0 (Windows NT 10.0; Win64; x64) AppleWebKit/537.36 (KHTML, like Gecko) Chrome/97.0.4692.99 Safari/537.36",WebKit,Chrome,97.0.4692.99,Windows,10.0,4d5ed8b1f2f00df59eccea4670b22524
2,1,"""","""","""","""","""",video-button-response,20,497550,0.0-20.0,jwd3phdlb,37838,"[""video/yes_line_10_8cut.mp4""]",1,yes_8,video/yes_line_10_8cut.mp4,2022-01-24 04:06:49,69.237.15.21,"Mozilla/5.0 (Windows NT 10.0; Win64; x64) AppleWebKit/537.36 (KHTML, like Gecko) Chrome/97.0.4692.99 Safari/537.36",WebKit,Chrome,97.0.4692.99,Windows,10.0,4d5ed8b1f2f00df59eccea4670b22524
2,1,"""","""","""","""","""",video-button-response,21,508086,0.0-21.0,jwd3phdlb,10532,"[""video/no_line_2_1cut.mp4""]",1,no_1,video/no_line_2_1cut.mp4,2022-01-24 04:06:49,69.237.15.21,"Mozilla/5.0 (Windows NT 10.0; Win64; x64) AppleWebKit/537.36 (KHTML, like Gecko) Chrome/97.0.4692.99 Safari/537.36",WebKit,Chrome,97.0.4692.99,Windows,10.0,4d5ed8b1f2f00df59eccea4670b22524
2,1,"""","""","""","""","""",video-button-response,22,528062,0.0-22.0,jwd3phdlb,19974,"[""video/yes_line_10_3cut.mp4""]",1,yes_34,video/yes_line_10_3cut.mp4,2022-01-24 04:06:49,69.237.15.21,"Mozilla/5.0 (Windows NT 10.0; Win64; x64) AppleWebKit/537.36 (KHTML, like Gecko) Chrome/97.0.4692.99 Safari/537.36",WebKit,Chrome,97.0.4692.99,Windows,10.0,4d5ed8b1f2f00df59eccea4670b22524
2,1,"""","""","""","""","""",video-button-response,23,545261,0.0-23.0,jwd3phdlb,17197,"[""video/yes_line_7_8cut.mp4""]",1,yes_8,video/yes_line_7_8cut.mp4,2022-01-24 04:06:49,69.237.15.21,"Mozilla/5.0 (Windows NT 10.0; Win64; x64) AppleWebKit/537.36 (KHTML, like Gecko) Chrome/97.0.4692.99 Safari/537.36",WebKit,Chrome,97.0.4692.99,Windows,10.0,4d5ed8b1f2f00df59eccea4670b22524
2,1,"""","""","""","""","""",video-button-response,24,560405,0.0-24.0,jwd3phdlb,15142,"[""video/yes_line_9_1cut.mp4""]",1,yes_1,video/yes_line_9_1cut.mp4,2022-01-24 04:06:49,69.237.15.21,"Mozilla/5.0 (Windows NT 10.0; Win64; x64) AppleWebKit/537.36 (KHTML, like Gecko) Chrome/97.0.4692.99 Safari/537.36",WebKit,Chrome,97.0.4692.99,Windows,10.0,4d5ed8b1f2f00df59eccea4670b22524
