run_id,condition,success,timeout,failed_images,failed_audio,failed_video,trial_type,trial_index,time_elapsed,internal_node_id,ID,rt,stimulus,response,trial_category,start,slider_start,stimulus_name,recorded_at,ip,user_agent,device,browser,browser_version,platform,platform_version,source_code_version
12,1,true,false,[],[],[],preload,0,1080,0.0-0.0,semep0hq8,"""","""","""","""","""","""","""",2022-01-26 04:22:23,73.80.90.55,"Mozilla/5.0 (Windows NT 10.0; Win64; x64) AppleWebKit/537.36 (KHTML, like Gecko) Chrome/97.0.4692.99 Safari/537.36",WebKit,Chrome,97.0.4692.99,Windows,10.0,9b0944a1c4b7446d8b03129ce44dbcf3
12,1,"""","""","""","""","""",html-keyboard-response,1,6102,0.0-1.0,semep0hq8,5009,"<p style=""text-align:center;width:700px;""> Welcome to the experiment! This study takes most people around 15 minutes to complete. Please complete it in one sitting.</p>", ,"""","""","""","""",2022-01-26 04:22:23,73.80.90.55,"Mozilla/5.0 (Windows NT 10.0; Win64; x64) AppleWebKit/537.36 (KHTML, like Gecko) Chrome/97.0.4692.99 Safari/537.36",WebKit,Chrome,97.0.4692.99,Windows,10.0,9b0944a1c4b7446d8b03129ce44dbcf3
12,1,"""","""","""","""","""",html-keyboard-response,2,36916,0.0-2.0,semep0hq8,30812,"<p style = ""font-size:16px;"">MIT Computational Cognitive Science Lab</p><h4>Press the 'y' key to consent.</h4><div style = ""background-color:#f2f2f2;""><h3>Informed Consent Form</h3><div style=""text-align:left;width:700px;""><p style = ""font-size:16px;"">In this HIT, you will be asked to read a set of instructions that describe a particular scenario, and you will then be asked to perform a simple task relating to that scenario. There will also be comprehension and attention checks. Participants who do not answer these checks correctly cannot be approved. In order to get credit for this HIT, you must read all the questions fully and answer honestly. You may only complete this HIT once. If you complete this HIT multiple times, you will be rejected.</p><p style = ""font-size:16px;"">This HIT is part of a MIT scientific research project. Your decision to complete this HIT is voluntary. There is no way for us to identify you. The only information we will have, in addition to your responses, is the time at which you completed the survey. The results of the research may be presented at scientific meetings or published in scientific journals. Pressing the ""Y"" key indicates that you are at least 18 years of age, and agree to complete this HIT voluntarily. Press the ""Y"" key to confirm your agreement and continue.</p></div>",y,"""","""","""","""",2022-01-26 04:22:23,73.80.90.55,"Mozilla/5.0 (Windows NT 10.0; Win64; x64) AppleWebKit/537.36 (KHTML, like Gecko) Chrome/97.0.4692.99 Safari/537.36",WebKit,Chrome,97.0.4692.99,Windows,10.0,9b0944a1c4b7446d8b03129ce44dbcf3
12,1,"""","""","""","""","""",survey-text,3,126804,0.0-3.0,semep0hq8,89857,"""","{""instructions1"":""To collect water from a water source and bring it back to the wooden storage bucket, and the faster they do it, the more points they receive.""}",instructions,"""","""","""",2022-01-26 04:22:23,73.80.90.55,"Mozilla/5.0 (Windows NT 10.0; Win64; x64) AppleWebKit/537.36 (KHTML, like Gecko) Chrome/97.0.4692.99 Safari/537.36",WebKit,Chrome,97.0.4692.99,Windows,10.0,9b0944a1c4b7446d8b03129ce44dbcf3
12,1,"""","""","""","""","""",survey-text,4,178499,0.0-4.0,semep0hq8,51579,"""","{""instructions2"":""One""}",instructions,"""","""","""",2022-01-26 04:22:23,73.80.90.55,"Mozilla/5.0 (Windows NT 10.0; Win64; x64) AppleWebKit/537.36 (KHTML, like Gecko) Chrome/97.0.4692.99 Safari/537.36",WebKit,Chrome,97.0.4692.99,Windows,10.0,9b0944a1c4b7446d8b03129ce44dbcf3
12,1,"""","""","""","""","""",survey-text,5,351456,0.0-5.0,semep0hq8,172938,"""","{""instructions4"":""Think about what would happen if everyone felt at liberty to leave the line and try to get water faster for themselves, instead of staying in line. Then answer if it was better or worse if everyone stayed in line.""}",instructions,"""","""","""",2022-01-26 04:22:23,73.80.90.55,"Mozilla/5.0 (Windows NT 10.0; Win64; x64) AppleWebKit/537.36 (KHTML, like Gecko) Chrome/97.0.4692.99 Safari/537.36",WebKit,Chrome,97.0.4692.99,Windows,10.0,9b0944a1c4b7446d8b03129ce44dbcf3
12,1,"""","""","""","""","""",video-slider-response,6,394224,0.0-6.0,semep0hq8,42661,"[""video/maybe_line_new_6_1cut.mp4""]",-50,maybe_1,null,0,video/maybe_line_new_6_1cut.mp4,2022-01-26 04:22:23,73.80.90.55,"Mozilla/5.0 (Windows NT 10.0; Win64; x64) AppleWebKit/537.36 (KHTML, like Gecko) Chrome/97.0.4692.99 Safari/537.36",WebKit,Chrome,97.0.4692.99,Windows,10.0,9b0944a1c4b7446d8b03129ce44dbcf3
12,1,"""","""","""","""","""",video-slider-response,7,419971,0.0-7.0,semep0hq8,25737,"[""video/yes_line_8_1cut.mp4""]",-50,yes_1,null,0,video/yes_line_8_1cut.mp4,2022-01-26 04:22:23,73.80.90.55,"Mozilla/5.0 (Windows NT 10.0; Win64; x64) AppleWebKit/537.36 (KHTML, like Gecko) Chrome/97.0.4692.99 Safari/537.36",WebKit,Chrome,97.0.4692.99,Windows,10.0,9b0944a1c4b7446d8b03129ce44dbcf3
12,1,"""","""","""","""","""",video-slider-response,8,435500,0.0-8.0,semep0hq8,15519,"[""video/no_line_1_1cut.mp4""]",50,no_1,null,0,video/no_line_1_1cut.mp4,2022-01-26 04:22:23,73.80.90.55,"Mozilla/5.0 (Windows NT 10.0; Win64; x64) AppleWebKit/537.36 (KHTML, like Gecko) Chrome/97.0.4692.99 Safari/537.36",WebKit,Chrome,97.0.4692.99,Windows,10.0,9b0944a1c4b7446d8b03129ce44dbcf3
12,1,"""","""","""","""","""",video-slider-response,9,448376,0.0-9.0,semep0hq8,12862,"[""video/no_line_2_1cut.mp4""]",50,no_1,null,0,video/no_line_2_1cut.mp4,2022-01-26 04:22:23,73.80.90.55,"Mozilla/5.0 (Windows NT 10.0; Win64; x64) AppleWebKit/537.36 (KHTML, like Gecko) Chrome/97.0.4692.99 Safari/537.36",WebKit,Chrome,97.0.4692.99,Windows,10.0,9b0944a1c4b7446d8b03129ce44dbcf3
12,1,"""","""","""","""","""",video-slider-response,10,467071,0.0-10.0,semep0hq8,18686,"[""video/maybe_line_new_2_1cut.mp4""]",50,maybe_1,null,0,video/maybe_line_new_2_1cut.mp4,2022-01-26 04:22:23,73.80.90.55,"Mozilla/5.0 (Windows NT 10.0; Win64; x64) AppleWebKit/537.36 (KHTML, like Gecko) Chrome/97.0.4692.99 Safari/537.36",WebKit,Chrome,97.0.4692.99,Windows,10.0,9b0944a1c4b7446d8b03129ce44dbcf3
12,1,"""","""","""","""","""",video-slider-response,11,479751,0.0-11.0,semep0hq8,12668,"[""video/maybe_line_new_5_1cut.mp4""]",-50,maybe_1,null,0,video/maybe_line_new_5_1cut.mp4,2022-01-26 04:22:23,73.80.90.55,"Mozilla/5.0 (Windows NT 10.0; Win64; x64) AppleWebKit/537.36 (KHTML, like Gecko) Chrome/97.0.4692.99 Safari/537.36",WebKit,Chrome,97.0.4692.99,Windows,10.0,9b0944a1c4b7446d8b03129ce44dbcf3
12,1,"""","""","""","""","""",video-slider-response,12,490435,0.0-12.0,semep0hq8,10676,"[""video/yes_line_9_1cut.mp4""]",-50,yes_1,null,0,video/yes_line_9_1cut.mp4,2022-01-26 04:22:23,73.80.90.55,"Mozilla/5.0 (Windows NT 10.0; Win64; x64) AppleWebKit/537.36 (KHTML, like Gecko) Chrome/97.0.4692.99 Safari/537.36",WebKit,Chrome,97.0.4692.99,Windows,10.0,9b0944a1c4b7446d8b03129ce44dbcf3
12,1,"""","""","""","""","""",video-slider-response,13,497446,0.0-13.0,semep0hq8,6999,"[""video/maybe_line_new_3_1cut.mp4""]",50,maybe_1,null,0,video/maybe_line_new_3_1cut.mp4,2022-01-26 04:22:23,73.80.90.55,"Mozilla/5.0 (Windows NT 10.0; Win64; x64) AppleWebKit/537.36 (KHTML, like Gecko) Chrome/97.0.4692.99 Safari/537.36",WebKit,Chrome,97.0.4692.99,Windows,10.0,9b0944a1c4b7446d8b03129ce44dbcf3
12,1,"""","""","""","""","""",video-slider-response,14,509604,0.0-14.0,semep0hq8,12150,"[""video/maybe_line_new_4_1cut.mp4""]",-50,maybe_1,null,0,video/maybe_line_new_4_1cut.mp4,2022-01-26 04:22:23,73.80.90.55,"Mozilla/5.0 (Windows NT 10.0; Win64; x64) AppleWebKit/537.36 (KHTML, like Gecko) Chrome/97.0.4692.99 Safari/537.36",WebKit,Chrome,97.0.4692.99,Windows,10.0,9b0944a1c4b7446d8b03129ce44dbcf3
12,1,"""","""","""","""","""",video-slider-response,15,522233,0.0-15.0,semep0hq8,12613,"[""video/maybe_line_new_1_1cut.mp4""]",-50,maybe_1,null,0,video/maybe_line_new_1_1cut.mp4,2022-01-26 04:22:23,73.80.90.55,"Mozilla/5.0 (Windows NT 10.0; Win64; x64) AppleWebKit/537.36 (KHTML, like Gecko) Chrome/97.0.4692.99 Safari/537.36",WebKit,Chrome,97.0.4692.99,Windows,10.0,9b0944a1c4b7446d8b03129ce44dbcf3
12,1,"""","""","""","""","""",video-slider-response,16,530196,0.0-16.0,semep0hq8,7956,"[""video/no_line_3_1cut.mp4""]",50,no_1,null,0,video/no_line_3_1cut.mp4,2022-01-26 04:22:23,73.80.90.55,"Mozilla/5.0 (Windows NT 10.0; Win64; x64) AppleWebKit/537.36 (KHTML, like Gecko) Chrome/97.0.4692.99 Safari/537.36",WebKit,Chrome,97.0.4692.99,Windows,10.0,9b0944a1c4b7446d8b03129ce44dbcf3
12,1,"""","""","""","""","""",video-slider-response,17,539568,0.0-17.0,semep0hq8,9351,"[""video/yes_line_7_1cut.mp4""]",-50,yes_1,null,0,video/yes_line_7_1cut.mp4,2022-01-26 04:22:23,73.80.90.55,"Mozilla/5.0 (Windows NT 10.0; Win64; x64) AppleWebKit/537.36 (KHTML, like Gecko) Chrome/97.0.4692.99 Safari/537.36",WebKit,Chrome,97.0.4692.99,Windows,10.0,9b0944a1c4b7446d8b03129ce44dbcf3
12,1,"""","""","""","""","""",video-slider-response,18,547676,0.0-18.0,semep0hq8,8101,"[""video/yes_line_10_1cut.mp4""]",-50,yes_1,null,0,video/yes_line_10_1cut.mp4,2022-01-26 04:22:23,73.80.90.55,"Mozilla/5.0 (Windows NT 10.0; Win64; x64) AppleWebKit/537.36 (KHTML, like Gecko) Chrome/97.0.4692.99 Safari/537.36",WebKit,Chrome,97.0.4692.99,Windows,10.0,9b0944a1c4b7446d8b03129ce44dbcf3
12,1,"""","""","""","""","""",survey-html-form,19,573869,0.0-19.0,semep0hq8,26184,"""","[{""name"":""understand"",""value"":""yes""},{""name"":""problems"",""value"":""No problems at all!""},{""name"":""age"",""value"":""44""},{""name"":""gender"",""value"":""male""},{""name"":""comments"",""value"":""MTURK ID:   A2VAL2BRKVSUB5""}]",debrief,"""","""","""",2022-01-26 04:22:23,73.80.90.55,"Mozilla/5.0 (Windows NT 10.0; Win64; x64) AppleWebKit/537.36 (KHTML, like Gecko) Chrome/97.0.4692.99 Safari/537.36",WebKit,Chrome,97.0.4692.99,Windows,10.0,9b0944a1c4b7446d8b03129ce44dbcf3
12,1,"""","""","""","""","""",html-keyboard-response,20,620995,0.0-20.0,semep0hq8,47121,"<div style=""font-size:20px;"">This task is now over. The completion code is: semep0hq8 Press space after you have the completion code to finish. Thank you for your participation! </div>", ,"""","""","""","""",2022-01-26 04:22:23,73.80.90.55,"Mozilla/5.0 (Windows NT 10.0; Win64; x64) AppleWebKit/537.36 (KHTML, like Gecko) Chrome/97.0.4692.99 Safari/537.36",WebKit,Chrome,97.0.4692.99,Windows,10.0,9b0944a1c4b7446d8b03129ce44dbcf3
10,1,true,false,[],[],[],preload,0,535,0.0-0.0,rhhm6gcs8,"""","""","""","""","""","""","""",2022-01-26 04:22:13,70.161.171.209,"Mozilla/5.0 (Windows NT 10.0; Win64; x64) AppleWebKit/537.36 (KHTML, like Gecko) Chrome/97.0.4692.99 Safari/537.36",WebKit,Chrome,97.0.4692.99,Windows,10.0,9b0944a1c4b7446d8b03129ce44dbcf3
10,1,"""","""","""","""","""",html-keyboard-response,1,3017,0.0-1.0,rhhm6gcs8,2479,"<p style=""text-align:center;width:700px;""> Welcome to the experiment! This study takes most people around 15 minutes to complete. Please complete it in one sitting.</p>", ,"""","""","""","""",2022-01-26 04:22:13,70.161.171.209,"Mozilla/5.0 (Windows NT 10.0; Win64; x64) AppleWebKit/537.36 (KHTML, like Gecko) Chrome/97.0.4692.99 Safari/537.36",WebKit,Chrome,97.0.4692.99,Windows,10.0,9b0944a1c4b7446d8b03129ce44dbcf3
10,1,"""","""","""","""","""",html-keyboard-response,2,6990,0.0-2.0,rhhm6gcs8,3971,"<p style = ""font-size:16px;"">MIT Computational Cognitive Science Lab</p><h4>Press the 'y' key to consent.</h4><div style = ""background-color:#f2f2f2;""><h3>Informed Consent Form</h3><div style=""text-align:left;width:700px;""><p style = ""font-size:16px;"">In this HIT, you will be asked to read a set of instructions that describe a particular scenario, and you will then be asked to perform a simple task relating to that scenario. There will also be comprehension and attention checks. Participants who do not answer these checks correctly cannot be approved. In order to get credit for this HIT, you must read all the questions fully and answer honestly. You may only complete this HIT once. If you complete this HIT multiple times, you will be rejected.</p><p style = ""font-size:16px;"">This HIT is part of a MIT scientific research project. Your decision to complete this HIT is voluntary. There is no way for us to identify you. The only information we will have, in addition to your responses, is the time at which you completed the survey. The results of the research may be presented at scientific meetings or published in scientific journals. Pressing the ""Y"" key indicates that you are at least 18 years of age, and agree to complete this HIT voluntarily. Press the ""Y"" key to confirm your agreement and continue.</p></div>",y,"""","""","""","""",2022-01-26 04:22:13,70.161.171.209,"Mozilla/5.0 (Windows NT 10.0; Win64; x64) AppleWebKit/537.36 (KHTML, like Gecko) Chrome/97.0.4692.99 Safari/537.36",WebKit,Chrome,97.0.4692.99,Windows,10.0,9b0944a1c4b7446d8b03129ce44dbcf3
10,1,"""","""","""","""","""",survey-text,3,53072,0.0-3.0,rhhm6gcs8,46072,"""","{""instructions1"":""collect water""}",instructions,"""","""","""",2022-01-26 04:22:13,70.161.171.209,"Mozilla/5.0 (Windows NT 10.0; Win64; x64) AppleWebKit/537.36 (KHTML, like Gecko) Chrome/97.0.4692.99 Safari/537.36",WebKit,Chrome,97.0.4692.99,Windows,10.0,9b0944a1c4b7446d8b03129ce44dbcf3
10,1,"""","""","""","""","""",survey-text,4,104308,0.0-4.0,rhhm6gcs8,51224,"""","{""instructions2"":""1""}",instructions,"""","""","""",2022-01-26 04:22:13,70.161.171.209,"Mozilla/5.0 (Windows NT 10.0; Win64; x64) AppleWebKit/537.36 (KHTML, like Gecko) Chrome/97.0.4692.99 Safari/537.36",WebKit,Chrome,97.0.4692.99,Windows,10.0,9b0944a1c4b7446d8b03129ce44dbcf3
10,1,"""","""","""","""","""",survey-text,5,228112,0.0-5.0,rhhm6gcs8,123797,"""","{""instructions4"":""Everyone feeling at liberty to leave and how that will affect everyone""}",instructions,"""","""","""",2022-01-26 04:22:13,70.161.171.209,"Mozilla/5.0 (Windows NT 10.0; Win64; x64) AppleWebKit/537.36 (KHTML, like Gecko) Chrome/97.0.4692.99 Safari/537.36",WebKit,Chrome,97.0.4692.99,Windows,10.0,9b0944a1c4b7446d8b03129ce44dbcf3
10,1,"""","""","""","""","""",video-slider-response,6,269347,0.0-6.0,rhhm6gcs8,41228,"[""video/maybe_line_new_5_1cut.mp4""]",-40,maybe_1,null,0,video/maybe_line_new_5_1cut.mp4,2022-01-26 04:22:13,70.161.171.209,"Mozilla/5.0 (Windows NT 10.0; Win64; x64) AppleWebKit/537.36 (KHTML, like Gecko) Chrome/97.0.4692.99 Safari/537.36",WebKit,Chrome,97.0.4692.99,Windows,10.0,9b0944a1c4b7446d8b03129ce44dbcf3
10,1,"""","""","""","""","""",video-slider-response,7,282264,0.0-7.0,rhhm6gcs8,12911,"[""video/yes_line_7_1cut.mp4""]",0,yes_1,null,0,video/yes_line_7_1cut.mp4,2022-01-26 04:22:13,70.161.171.209,"Mozilla/5.0 (Windows NT 10.0; Win64; x64) AppleWebKit/537.36 (KHTML, like Gecko) Chrome/97.0.4692.99 Safari/537.36",WebKit,Chrome,97.0.4692.99,Windows,10.0,9b0944a1c4b7446d8b03129ce44dbcf3
10,1,"""","""","""","""","""",video-slider-response,8,291957,0.0-8.0,rhhm6gcs8,9690,"[""video/yes_line_9_1cut.mp4""]",-21,yes_1,null,0,video/yes_line_9_1cut.mp4,2022-01-26 04:22:13,70.161.171.209,"Mozilla/5.0 (Windows NT 10.0; Win64; x64) AppleWebKit/537.36 (KHTML, like Gecko) Chrome/97.0.4692.99 Safari/537.36",WebKit,Chrome,97.0.4692.99,Windows,10.0,9b0944a1c4b7446d8b03129ce44dbcf3
10,1,"""","""","""","""","""",video-slider-response,9,301458,0.0-9.0,rhhm6gcs8,9493,"[""video/no_line_2_1cut.mp4""]",0,no_1,null,0,video/no_line_2_1cut.mp4,2022-01-26 04:22:13,70.161.171.209,"Mozilla/5.0 (Windows NT 10.0; Win64; x64) AppleWebKit/537.36 (KHTML, like Gecko) Chrome/97.0.4692.99 Safari/537.36",WebKit,Chrome,97.0.4692.99,Windows,10.0,9b0944a1c4b7446d8b03129ce44dbcf3
10,1,"""","""","""","""","""",video-slider-response,10,311398,0.0-10.0,rhhm6gcs8,9935,"[""video/maybe_line_new_6_1cut.mp4""]",0,maybe_1,null,0,video/maybe_line_new_6_1cut.mp4,2022-01-26 04:22:13,70.161.171.209,"Mozilla/5.0 (Windows NT 10.0; Win64; x64) AppleWebKit/537.36 (KHTML, like Gecko) Chrome/97.0.4692.99 Safari/537.36",WebKit,Chrome,97.0.4692.99,Windows,10.0,9b0944a1c4b7446d8b03129ce44dbcf3
10,1,"""","""","""","""","""",video-slider-response,11,320245,0.0-11.0,rhhm6gcs8,8840,"[""video/yes_line_10_1cut.mp4""]",-26,yes_1,null,0,video/yes_line_10_1cut.mp4,2022-01-26 04:22:13,70.161.171.209,"Mozilla/5.0 (Windows NT 10.0; Win64; x64) AppleWebKit/537.36 (KHTML, like Gecko) Chrome/97.0.4692.99 Safari/537.36",WebKit,Chrome,97.0.4692.99,Windows,10.0,9b0944a1c4b7446d8b03129ce44dbcf3
10,1,"""","""","""","""","""",video-slider-response,12,333497,0.0-12.0,rhhm6gcs8,13248,"[""video/no_line_3_1cut.mp4""]",-25,no_1,null,0,video/no_line_3_1cut.mp4,2022-01-26 04:22:13,70.161.171.209,"Mozilla/5.0 (Windows NT 10.0; Win64; x64) AppleWebKit/537.36 (KHTML, like Gecko) Chrome/97.0.4692.99 Safari/537.36",WebKit,Chrome,97.0.4692.99,Windows,10.0,9b0944a1c4b7446d8b03129ce44dbcf3
10,1,"""","""","""","""","""",video-slider-response,13,344749,0.0-13.0,rhhm6gcs8,11247,"[""video/maybe_line_new_1_1cut.mp4""]",-28,maybe_1,null,0,video/maybe_line_new_1_1cut.mp4,2022-01-26 04:22:13,70.161.171.209,"Mozilla/5.0 (Windows NT 10.0; Win64; x64) AppleWebKit/537.36 (KHTML, like Gecko) Chrome/97.0.4692.99 Safari/537.36",WebKit,Chrome,97.0.4692.99,Windows,10.0,9b0944a1c4b7446d8b03129ce44dbcf3
10,1,"""","""","""","""","""",video-slider-response,14,355411,0.0-14.0,rhhm6gcs8,10658,"[""video/maybe_line_new_4_1cut.mp4""]",-24,maybe_1,null,0,video/maybe_line_new_4_1cut.mp4,2022-01-26 04:22:13,70.161.171.209,"Mozilla/5.0 (Windows NT 10.0; Win64; x64) AppleWebKit/537.36 (KHTML, like Gecko) Chrome/97.0.4692.99 Safari/537.36",WebKit,Chrome,97.0.4692.99,Windows,10.0,9b0944a1c4b7446d8b03129ce44dbcf3
10,1,"""","""","""","""","""",video-slider-response,15,365430,0.0-15.0,rhhm6gcs8,10013,"[""video/maybe_line_new_2_1cut.mp4""]",0,maybe_1,null,0,video/maybe_line_new_2_1cut.mp4,2022-01-26 04:22:13,70.161.171.209,"Mozilla/5.0 (Windows NT 10.0; Win64; x64) AppleWebKit/537.36 (KHTML, like Gecko) Chrome/97.0.4692.99 Safari/537.36",WebKit,Chrome,97.0.4692.99,Windows,10.0,9b0944a1c4b7446d8b03129ce44dbcf3
10,1,"""","""","""","""","""",video-slider-response,16,374347,0.0-16.0,rhhm6gcs8,8912,"[""video/yes_line_8_1cut.mp4""]",-30,yes_1,null,0,video/yes_line_8_1cut.mp4,2022-01-26 04:22:13,70.161.171.209,"Mozilla/5.0 (Windows NT 10.0; Win64; x64) AppleWebKit/537.36 (KHTML, like Gecko) Chrome/97.0.4692.99 Safari/537.36",WebKit,Chrome,97.0.4692.99,Windows,10.0,9b0944a1c4b7446d8b03129ce44dbcf3
10,1,"""","""","""","""","""",video-slider-response,17,381984,0.0-17.0,rhhm6gcs8,7628,"[""video/maybe_line_new_3_1cut.mp4""]",-20,maybe_1,null,0,video/maybe_line_new_3_1cut.mp4,2022-01-26 04:22:13,70.161.171.209,"Mozilla/5.0 (Windows NT 10.0; Win64; x64) AppleWebKit/537.36 (KHTML, like Gecko) Chrome/97.0.4692.99 Safari/537.36",WebKit,Chrome,97.0.4692.99,Windows,10.0,9b0944a1c4b7446d8b03129ce44dbcf3
10,1,"""","""","""","""","""",video-slider-response,18,389411,0.0-18.0,rhhm6gcs8,7424,"[""video/no_line_1_1cut.mp4""]",0,no_1,null,0,video/no_line_1_1cut.mp4,2022-01-26 04:22:13,70.161.171.209,"Mozilla/5.0 (Windows NT 10.0; Win64; x64) AppleWebKit/537.36 (KHTML, like Gecko) Chrome/97.0.4692.99 Safari/537.36",WebKit,Chrome,97.0.4692.99,Windows,10.0,9b0944a1c4b7446d8b03129ce44dbcf3
10,1,"""","""","""","""","""",survey-html-form,19,408320,0.0-19.0,rhhm6gcs8,18906,"""","[{""name"":""understand"",""value"":""yes""},{""name"":""problems"",""value"":""No""},{""name"":""age"",""value"":""45""},{""name"":""gender"",""value"":""female""},{""name"":""comments"",""value"":""No""}]",debrief,"""","""","""",2022-01-26 04:22:13,70.161.171.209,"Mozilla/5.0 (Windows NT 10.0; Win64; x64) AppleWebKit/537.36 (KHTML, like Gecko) Chrome/97.0.4692.99 Safari/537.36",WebKit,Chrome,97.0.4692.99,Windows,10.0,9b0944a1c4b7446d8b03129ce44dbcf3
10,1,"""","""","""","""","""",html-keyboard-response,20,457514,0.0-20.0,rhhm6gcs8,49191,"<div style=""font-size:20px;"">This task is now over. The completion code is: rhhm6gcs8 Press space after you have the completion code to finish. Thank you for your participation! </div>", ,"""","""","""","""",2022-01-26 04:22:13,70.161.171.209,"Mozilla/5.0 (Windows NT 10.0; Win64; x64) AppleWebKit/537.36 (KHTML, like Gecko) Chrome/97.0.4692.99 Safari/537.36",WebKit,Chrome,97.0.4692.99,Windows,10.0,9b0944a1c4b7446d8b03129ce44dbcf3
15,1,true,false,[],[],[],preload,0,699,0.0-0.0,6t4mp6pdc,"""","""","""","""","""","""","""",2022-01-26 04:24:40,68.32.41.142,"Mozilla/5.0 (Windows NT 10.0; Win64; x64) AppleWebKit/537.36 (KHTML, like Gecko) Chrome/94.0.4606.54 Safari/537.36 Edg/93.0.961.38",WebKit,Edge,93.0.961.38,Windows,10.0,9b0944a1c4b7446d8b03129ce44dbcf3
15,1,"""","""","""","""","""",html-keyboard-response,1,5351,0.0-1.0,6t4mp6pdc,4648,"<p style=""text-align:center;width:700px;""> Welcome to the experiment! This study takes most people around 15 minutes to complete. Please complete it in one sitting.</p>", ,"""","""","""","""",2022-01-26 04:24:40,68.32.41.142,"Mozilla/5.0 (Windows NT 10.0; Win64; x64) AppleWebKit/537.36 (KHTML, like Gecko) Chrome/94.0.4606.54 Safari/537.36 Edg/93.0.961.38",WebKit,Edge,93.0.961.38,Windows,10.0,9b0944a1c4b7446d8b03129ce44dbcf3
15,1,"""","""","""","""","""",html-keyboard-response,2,9744,0.0-2.0,6t4mp6pdc,4392,"<p style = ""font-size:16px;"">MIT Computational Cognitive Science Lab</p><h4>Press the 'y' key to consent.</h4><div style = ""background-color:#f2f2f2;""><h3>Informed Consent Form</h3><div style=""text-align:left;width:700px;""><p style = ""font-size:16px;"">In this HIT, you will be asked to read a set of instructions that describe a particular scenario, and you will then be asked to perform a simple task relating to that scenario. There will also be comprehension and attention checks. Participants who do not answer these checks correctly cannot be approved. In order to get credit for this HIT, you must read all the questions fully and answer honestly. You may only complete this HIT once. If you complete this HIT multiple times, you will be rejected.</p><p style = ""font-size:16px;"">This HIT is part of a MIT scientific research project. Your decision to complete this HIT is voluntary. There is no way for us to identify you. The only information we will have, in addition to your responses, is the time at which you completed the survey. The results of the research may be presented at scientific meetings or published in scientific journals. Pressing the ""Y"" key indicates that you are at least 18 years of age, and agree to complete this HIT voluntarily. Press the ""Y"" key to confirm your agreement and continue.</p></div>",y,"""","""","""","""",2022-01-26 04:24:40,68.32.41.142,"Mozilla/5.0 (Windows NT 10.0; Win64; x64) AppleWebKit/537.36 (KHTML, like Gecko) Chrome/94.0.4606.54 Safari/537.36 Edg/93.0.961.38",WebKit,Edge,93.0.961.38,Windows,10.0,9b0944a1c4b7446d8b03129ce44dbcf3
15,1,"""","""","""","""","""",survey-text,3,60608,0.0-3.0,6t4mp6pdc,50858,"""","{""instructions1"":""collect water from a water source and bring it back to the wooden storage buckets""}",instructions,"""","""","""",2022-01-26 04:24:40,68.32.41.142,"Mozilla/5.0 (Windows NT 10.0; Win64; x64) AppleWebKit/537.36 (KHTML, like Gecko) Chrome/94.0.4606.54 Safari/537.36 Edg/93.0.961.38",WebKit,Edge,93.0.961.38,Windows,10.0,9b0944a1c4b7446d8b03129ce44dbcf3
15,1,"""","""","""","""","""",survey-text,4,108872,0.0-4.0,6t4mp6pdc,48249,"""","{""instructions2"":""1""}",instructions,"""","""","""",2022-01-26 04:24:40,68.32.41.142,"Mozilla/5.0 (Windows NT 10.0; Win64; x64) AppleWebKit/537.36 (KHTML, like Gecko) Chrome/94.0.4606.54 Safari/537.36 Edg/93.0.961.38",WebKit,Edge,93.0.961.38,Windows,10.0,9b0944a1c4b7446d8b03129ce44dbcf3
15,1,"""","""","""","""","""",survey-text,5,194126,0.0-5.0,6t4mp6pdc,85251,"""","{""instructions4"":""what would happen if EVERYONE felt at liberty to leave the line and how much better or worse off everyone would be if everyone stayed in line""}",instructions,"""","""","""",2022-01-26 04:24:40,68.32.41.142,"Mozilla/5.0 (Windows NT 10.0; Win64; x64) AppleWebKit/537.36 (KHTML, like Gecko) Chrome/94.0.4606.54 Safari/537.36 Edg/93.0.961.38",WebKit,Edge,93.0.961.38,Windows,10.0,9b0944a1c4b7446d8b03129ce44dbcf3
15,1,"""","""","""","""","""",video-slider-response,6,231871,0.0-6.0,6t4mp6pdc,37739,"[""video/maybe_line_new_3_1cut.mp4""]",-45,maybe_1,null,0,video/maybe_line_new_3_1cut.mp4,2022-01-26 04:24:40,68.32.41.142,"Mozilla/5.0 (Windows NT 10.0; Win64; x64) AppleWebKit/537.36 (KHTML, like Gecko) Chrome/94.0.4606.54 Safari/537.36 Edg/93.0.961.38",WebKit,Edge,93.0.961.38,Windows,10.0,9b0944a1c4b7446d8b03129ce44dbcf3
15,1,"""","""","""","""","""",video-slider-response,7,246678,0.0-7.0,6t4mp6pdc,14804,"[""video/maybe_line_new_6_1cut.mp4""]",-49,maybe_1,null,0,video/maybe_line_new_6_1cut.mp4,2022-01-26 04:24:40,68.32.41.142,"Mozilla/5.0 (Windows NT 10.0; Win64; x64) AppleWebKit/537.36 (KHTML, like Gecko) Chrome/94.0.4606.54 Safari/537.36 Edg/93.0.961.38",WebKit,Edge,93.0.961.38,Windows,10.0,9b0944a1c4b7446d8b03129ce44dbcf3
15,1,"""","""","""","""","""",video-slider-response,8,256622,0.0-8.0,6t4mp6pdc,9942,"[""video/no_line_1_1cut.mp4""]",43,no_1,null,0,video/no_line_1_1cut.mp4,2022-01-26 04:24:40,68.32.41.142,"Mozilla/5.0 (Windows NT 10.0; Win64; x64) AppleWebKit/537.36 (KHTML, like Gecko) Chrome/94.0.4606.54 Safari/537.36 Edg/93.0.961.38",WebKit,Edge,93.0.961.38,Windows,10.0,9b0944a1c4b7446d8b03129ce44dbcf3
15,1,"""","""","""","""","""",video-slider-response,9,268922,0.0-9.0,6t4mp6pdc,12297,"[""video/yes_line_7_1cut.mp4""]",-48,yes_1,null,0,video/yes_line_7_1cut.mp4,2022-01-26 04:24:40,68.32.41.142,"Mozilla/5.0 (Windows NT 10.0; Win64; x64) AppleWebKit/537.36 (KHTML, like Gecko) Chrome/94.0.4606.54 Safari/537.36 Edg/93.0.961.38",WebKit,Edge,93.0.961.38,Windows,10.0,9b0944a1c4b7446d8b03129ce44dbcf3
15,1,"""","""","""","""","""",video-slider-response,10,282921,0.0-10.0,6t4mp6pdc,13997,"[""video/no_line_3_1cut.mp4""]",23,no_1,null,0,video/no_line_3_1cut.mp4,2022-01-26 04:24:40,68.32.41.142,"Mozilla/5.0 (Windows NT 10.0; Win64; x64) AppleWebKit/537.36 (KHTML, like Gecko) Chrome/94.0.4606.54 Safari/537.36 Edg/93.0.961.38",WebKit,Edge,93.0.961.38,Windows,10.0,9b0944a1c4b7446d8b03129ce44dbcf3
15,1,"""","""","""","""","""",video-slider-response,11,309036,0.0-11.0,6t4mp6pdc,26112,"[""video/maybe_line_new_2_1cut.mp4""]",7,maybe_1,null,0,video/maybe_line_new_2_1cut.mp4,2022-01-26 04:24:40,68.32.41.142,"Mozilla/5.0 (Windows NT 10.0; Win64; x64) AppleWebKit/537.36 (KHTML, like Gecko) Chrome/94.0.4606.54 Safari/537.36 Edg/93.0.961.38",WebKit,Edge,93.0.961.38,Windows,10.0,9b0944a1c4b7446d8b03129ce44dbcf3
15,1,"""","""","""","""","""",video-slider-response,12,326098,0.0-12.0,6t4mp6pdc,17060,"[""video/maybe_line_new_1_1cut.mp4""]",-11,maybe_1,null,0,video/maybe_line_new_1_1cut.mp4,2022-01-26 04:24:40,68.32.41.142,"Mozilla/5.0 (Windows NT 10.0; Win64; x64) AppleWebKit/537.36 (KHTML, like Gecko) Chrome/94.0.4606.54 Safari/537.36 Edg/93.0.961.38",WebKit,Edge,93.0.961.38,Windows,10.0,9b0944a1c4b7446d8b03129ce44dbcf3
15,1,"""","""","""","""","""",video-slider-response,13,346347,0.0-13.0,6t4mp6pdc,20247,"[""video/yes_line_8_1cut.mp4""]",-45,yes_1,null,0,video/yes_line_8_1cut.mp4,2022-01-26 04:24:40,68.32.41.142,"Mozilla/5.0 (Windows NT 10.0; Win64; x64) AppleWebKit/537.36 (KHTML, like Gecko) Chrome/94.0.4606.54 Safari/537.36 Edg/93.0.961.38",WebKit,Edge,93.0.961.38,Windows,10.0,9b0944a1c4b7446d8b03129ce44dbcf3
15,1,"""","""","""","""","""",video-slider-response,14,363215,0.0-14.0,6t4mp6pdc,16866,"[""video/yes_line_10_1cut.mp4""]",-50,yes_1,null,0,video/yes_line_10_1cut.mp4,2022-01-26 04:24:40,68.32.41.142,"Mozilla/5.0 (Windows NT 10.0; Win64; x64) AppleWebKit/537.36 (KHTML, like Gecko) Chrome/94.0.4606.54 Safari/537.36 Edg/93.0.961.38",WebKit,Edge,93.0.961.38,Windows,10.0,9b0944a1c4b7446d8b03129ce44dbcf3
15,1,"""","""","""","""","""",video-slider-response,15,377087,0.0-15.0,6t4mp6pdc,13869,"[""video/maybe_line_new_4_1cut.mp4""]",8,maybe_1,null,0,video/maybe_line_new_4_1cut.mp4,2022-01-26 04:24:40,68.32.41.142,"Mozilla/5.0 (Windows NT 10.0; Win64; x64) AppleWebKit/537.36 (KHTML, like Gecko) Chrome/94.0.4606.54 Safari/537.36 Edg/93.0.961.38",WebKit,Edge,93.0.961.38,Windows,10.0,9b0944a1c4b7446d8b03129ce44dbcf3
15,1,"""","""","""","""","""",video-slider-response,16,390180,0.0-16.0,6t4mp6pdc,13091,"[""video/maybe_line_new_5_1cut.mp4""]",-47,maybe_1,null,0,video/maybe_line_new_5_1cut.mp4,2022-01-26 04:24:40,68.32.41.142,"Mozilla/5.0 (Windows NT 10.0; Win64; x64) AppleWebKit/537.36 (KHTML, like Gecko) Chrome/94.0.4606.54 Safari/537.36 Edg/93.0.961.38",WebKit,Edge,93.0.961.38,Windows,10.0,9b0944a1c4b7446d8b03129ce44dbcf3
15,1,"""","""","""","""","""",video-slider-response,17,419461,0.0-17.0,6t4mp6pdc,29278,"[""video/yes_line_9_1cut.mp4""]",7,yes_1,null,0,video/yes_line_9_1cut.mp4,2022-01-26 04:24:40,68.32.41.142,"Mozilla/5.0 (Windows NT 10.0; Win64; x64) AppleWebKit/537.36 (KHTML, like Gecko) Chrome/94.0.4606.54 Safari/537.36 Edg/93.0.961.38",WebKit,Edge,93.0.961.38,Windows,10.0,9b0944a1c4b7446d8b03129ce44dbcf3
15,1,"""","""","""","""","""",video-slider-response,18,434864,0.0-18.0,6t4mp6pdc,15401,"[""video/no_line_2_1cut.mp4""]",45,no_1,null,0,video/no_line_2_1cut.mp4,2022-01-26 04:24:40,68.32.41.142,"Mozilla/5.0 (Windows NT 10.0; Win64; x64) AppleWebKit/537.36 (KHTML, like Gecko) Chrome/94.0.4606.54 Safari/537.36 Edg/93.0.961.38",WebKit,Edge,93.0.961.38,Windows,10.0,9b0944a1c4b7446d8b03129ce44dbcf3
15,1,"""","""","""","""","""",survey-html-form,19,504658,0.0-19.0,6t4mp6pdc,69792,"""","[{""name"":""understand"",""value"":""yes""},{""name"":""problems"",""value"":""no""},{""name"":""age"",""value"":""35""},{""name"":""gender"",""value"":""male""},{""name"":""comments"",""value"":""The instructions should make it clear that there can be multiple types of water sources.""}]",debrief,"""","""","""",2022-01-26 04:24:40,68.32.41.142,"Mozilla/5.0 (Windows NT 10.0; Win64; x64) AppleWebKit/537.36 (KHTML, like Gecko) Chrome/94.0.4606.54 Safari/537.36 Edg/93.0.961.38",WebKit,Edge,93.0.961.38,Windows,10.0,9b0944a1c4b7446d8b03129ce44dbcf3
15,1,"""","""","""","""","""",html-keyboard-response,20,522806,0.0-20.0,6t4mp6pdc,18147,"<div style=""font-size:20px;"">This task is now over. The completion code is: 6t4mp6pdc Press space after you have the completion code to finish. Thank you for your participation! </div>", ,"""","""","""","""",2022-01-26 04:24:40,68.32.41.142,"Mozilla/5.0 (Windows NT 10.0; Win64; x64) AppleWebKit/537.36 (KHTML, like Gecko) Chrome/94.0.4606.54 Safari/537.36 Edg/93.0.961.38",WebKit,Edge,93.0.961.38,Windows,10.0,9b0944a1c4b7446d8b03129ce44dbcf3
17,1,true,false,[],[],[],preload,0,677,0.0-0.0,ayq8yj6hc,"""","""","""","""","""","""","""",2022-01-26 04:25:55,24.163.27.166,"Mozilla/5.0 (Macintosh; Intel Mac OS X 10_15_7) AppleWebKit/537.36 (KHTML, like Gecko) Chrome/97.0.4692.99 Safari/537.36",Macintosh,Chrome,97.0.4692.99,OS X,10_15_7,9b0944a1c4b7446d8b03129ce44dbcf3
17,1,"""","""","""","""","""",html-keyboard-response,1,4792,0.0-1.0,ayq8yj6hc,4112,"<p style=""text-align:center;width:700px;""> Welcome to the experiment! This study takes most people around 15 minutes to complete. Please complete it in one sitting.</p>", ,"""","""","""","""",2022-01-26 04:25:55,24.163.27.166,"Mozilla/5.0 (Macintosh; Intel Mac OS X 10_15_7) AppleWebKit/537.36 (KHTML, like Gecko) Chrome/97.0.4692.99 Safari/537.36",Macintosh,Chrome,97.0.4692.99,OS X,10_15_7,9b0944a1c4b7446d8b03129ce44dbcf3
17,1,"""","""","""","""","""",html-keyboard-response,2,7541,0.0-2.0,ayq8yj6hc,2747,"<p style = ""font-size:16px;"">MIT Computational Cognitive Science Lab</p><h4>Press the 'y' key to consent.</h4><div style = ""background-color:#f2f2f2;""><h3>Informed Consent Form</h3><div style=""text-align:left;width:700px;""><p style = ""font-size:16px;"">In this HIT, you will be asked to read a set of instructions that describe a particular scenario, and you will then be asked to perform a simple task relating to that scenario. There will also be comprehension and attention checks. Participants who do not answer these checks correctly cannot be approved. In order to get credit for this HIT, you must read all the questions fully and answer honestly. You may only complete this HIT once. If you complete this HIT multiple times, you will be rejected.</p><p style = ""font-size:16px;"">This HIT is part of a MIT scientific research project. Your decision to complete this HIT is voluntary. There is no way for us to identify you. The only information we will have, in addition to your responses, is the time at which you completed the survey. The results of the research may be presented at scientific meetings or published in scientific journals. Pressing the ""Y"" key indicates that you are at least 18 years of age, and agree to complete this HIT voluntarily. Press the ""Y"" key to confirm your agreement and continue.</p></div>",y,"""","""","""","""",2022-01-26 04:25:55,24.163.27.166,"Mozilla/5.0 (Macintosh; Intel Mac OS X 10_15_7) AppleWebKit/537.36 (KHTML, like Gecko) Chrome/97.0.4692.99 Safari/537.36",Macintosh,Chrome,97.0.4692.99,OS X,10_15_7,9b0944a1c4b7446d8b03129ce44dbcf3
17,1,"""","""","""","""","""",survey-text,3,45472,0.0-3.0,ayq8yj6hc,37918,"""","{""instructions1"":""Collect water and place it in the wooden bucket.""}",instructions,"""","""","""",2022-01-26 04:25:55,24.163.27.166,"Mozilla/5.0 (Macintosh; Intel Mac OS X 10_15_7) AppleWebKit/537.36 (KHTML, like Gecko) Chrome/97.0.4692.99 Safari/537.36",Macintosh,Chrome,97.0.4692.99,OS X,10_15_7,9b0944a1c4b7446d8b03129ce44dbcf3
17,1,"""","""","""","""","""",survey-text,4,71695,0.0-4.0,ayq8yj6hc,26211,"""","{""instructions2"":""1""}",instructions,"""","""","""",2022-01-26 04:25:55,24.163.27.166,"Mozilla/5.0 (Macintosh; Intel Mac OS X 10_15_7) AppleWebKit/537.36 (KHTML, like Gecko) Chrome/97.0.4692.99 Safari/537.36",Macintosh,Chrome,97.0.4692.99,OS X,10_15_7,9b0944a1c4b7446d8b03129ce44dbcf3
17,1,"""","""","""","""","""",survey-text,5,240104,0.0-5.0,ayq8yj6hc,168394,"""","{""instructions4"":""How everyone else would feel in regards to staying in line or leaving the line.""}",instructions,"""","""","""",2022-01-26 04:25:55,24.163.27.166,"Mozilla/5.0 (Macintosh; Intel Mac OS X 10_15_7) AppleWebKit/537.36 (KHTML, like Gecko) Chrome/97.0.4692.99 Safari/537.36",Macintosh,Chrome,97.0.4692.99,OS X,10_15_7,9b0944a1c4b7446d8b03129ce44dbcf3
17,1,"""","""","""","""","""",video-slider-response,6,283489,0.0-6.0,ayq8yj6hc,43376,"[""video/no_line_3_1cut.mp4""]",45,no_1,null,0,video/no_line_3_1cut.mp4,2022-01-26 04:25:55,24.163.27.166,"Mozilla/5.0 (Macintosh; Intel Mac OS X 10_15_7) AppleWebKit/537.36 (KHTML, like Gecko) Chrome/97.0.4692.99 Safari/537.36",Macintosh,Chrome,97.0.4692.99,OS X,10_15_7,9b0944a1c4b7446d8b03129ce44dbcf3
17,1,"""","""","""","""","""",video-slider-response,7,300753,0.0-7.0,ayq8yj6hc,17258,"[""video/yes_line_9_1cut.mp4""]",-35,yes_1,null,0,video/yes_line_9_1cut.mp4,2022-01-26 04:25:55,24.163.27.166,"Mozilla/5.0 (Macintosh; Intel Mac OS X 10_15_7) AppleWebKit/537.36 (KHTML, like Gecko) Chrome/97.0.4692.99 Safari/537.36",Macintosh,Chrome,97.0.4692.99,OS X,10_15_7,9b0944a1c4b7446d8b03129ce44dbcf3
17,1,"""","""","""","""","""",video-slider-response,8,312470,0.0-8.0,ayq8yj6hc,11708,"[""video/no_line_2_1cut.mp4""]",50,no_1,null,0,video/no_line_2_1cut.mp4,2022-01-26 04:25:55,24.163.27.166,"Mozilla/5.0 (Macintosh; Intel Mac OS X 10_15_7) AppleWebKit/537.36 (KHTML, like Gecko) Chrome/97.0.4692.99 Safari/537.36",Macintosh,Chrome,97.0.4692.99,OS X,10_15_7,9b0944a1c4b7446d8b03129ce44dbcf3
17,1,"""","""","""","""","""",video-slider-response,9,320996,0.0-9.0,ayq8yj6hc,8517,"[""video/no_line_1_1cut.mp4""]",50,no_1,null,0,video/no_line_1_1cut.mp4,2022-01-26 04:25:55,24.163.27.166,"Mozilla/5.0 (Macintosh; Intel Mac OS X 10_15_7) AppleWebKit/537.36 (KHTML, like Gecko) Chrome/97.0.4692.99 Safari/537.36",Macintosh,Chrome,97.0.4692.99,OS X,10_15_7,9b0944a1c4b7446d8b03129ce44dbcf3
17,1,"""","""","""","""","""",video-slider-response,10,332238,0.0-10.0,ayq8yj6hc,11235,"[""video/maybe_line_new_5_1cut.mp4""]",-50,maybe_1,null,0,video/maybe_line_new_5_1cut.mp4,2022-01-26 04:25:55,24.163.27.166,"Mozilla/5.0 (Macintosh; Intel Mac OS X 10_15_7) AppleWebKit/537.36 (KHTML, like Gecko) Chrome/97.0.4692.99 Safari/537.36",Macintosh,Chrome,97.0.4692.99,OS X,10_15_7,9b0944a1c4b7446d8b03129ce44dbcf3
17,1,"""","""","""","""","""",video-slider-response,11,354911,0.0-11.0,ayq8yj6hc,22667,"[""video/maybe_line_new_1_1cut.mp4""]",-41,maybe_1,null,0,video/maybe_line_new_1_1cut.mp4,2022-01-26 04:25:55,24.163.27.166,"Mozilla/5.0 (Macintosh; Intel Mac OS X 10_15_7) AppleWebKit/537.36 (KHTML, like Gecko) Chrome/97.0.4692.99 Safari/537.36",Macintosh,Chrome,97.0.4692.99,OS X,10_15_7,9b0944a1c4b7446d8b03129ce44dbcf3
17,1,"""","""","""","""","""",video-slider-response,12,370787,0.0-12.0,ayq8yj6hc,15868,"[""video/maybe_line_new_2_1cut.mp4""]",-48,maybe_1,null,0,video/maybe_line_new_2_1cut.mp4,2022-01-26 04:25:55,24.163.27.166,"Mozilla/5.0 (Macintosh; Intel Mac OS X 10_15_7) AppleWebKit/537.36 (KHTML, like Gecko) Chrome/97.0.4692.99 Safari/537.36",Macintosh,Chrome,97.0.4692.99,OS X,10_15_7,9b0944a1c4b7446d8b03129ce44dbcf3
17,1,"""","""","""","""","""",video-slider-response,13,390878,0.0-13.0,ayq8yj6hc,20084,"[""video/maybe_line_new_4_1cut.mp4""]",-25,maybe_1,null,0,video/maybe_line_new_4_1cut.mp4,2022-01-26 04:25:55,24.163.27.166,"Mozilla/5.0 (Macintosh; Intel Mac OS X 10_15_7) AppleWebKit/537.36 (KHTML, like Gecko) Chrome/97.0.4692.99 Safari/537.36",Macintosh,Chrome,97.0.4692.99,OS X,10_15_7,9b0944a1c4b7446d8b03129ce44dbcf3
17,1,"""","""","""","""","""",video-slider-response,14,398121,0.0-14.0,ayq8yj6hc,7235,"[""video/yes_line_10_1cut.mp4""]",-50,yes_1,null,0,video/yes_line_10_1cut.mp4,2022-01-26 04:25:55,24.163.27.166,"Mozilla/5.0 (Macintosh; Intel Mac OS X 10_15_7) AppleWebKit/537.36 (KHTML, like Gecko) Chrome/97.0.4692.99 Safari/537.36",Macintosh,Chrome,97.0.4692.99,OS X,10_15_7,9b0944a1c4b7446d8b03129ce44dbcf3
17,1,"""","""","""","""","""",video-slider-response,15,425056,0.0-15.0,ayq8yj6hc,26926,"[""video/maybe_line_new_6_1cut.mp4""]",-33,maybe_1,null,0,video/maybe_line_new_6_1cut.mp4,2022-01-26 04:25:55,24.163.27.166,"Mozilla/5.0 (Macintosh; Intel Mac OS X 10_15_7) AppleWebKit/537.36 (KHTML, like Gecko) Chrome/97.0.4692.99 Safari/537.36",Macintosh,Chrome,97.0.4692.99,OS X,10_15_7,9b0944a1c4b7446d8b03129ce44dbcf3
17,1,"""","""","""","""","""",video-slider-response,16,433213,0.0-16.0,ayq8yj6hc,8150,"[""video/maybe_line_new_3_1cut.mp4""]",21,maybe_1,null,0,video/maybe_line_new_3_1cut.mp4,2022-01-26 04:25:55,24.163.27.166,"Mozilla/5.0 (Macintosh; Intel Mac OS X 10_15_7) AppleWebKit/537.36 (KHTML, like Gecko) Chrome/97.0.4692.99 Safari/537.36",Macintosh,Chrome,97.0.4692.99,OS X,10_15_7,9b0944a1c4b7446d8b03129ce44dbcf3
17,1,"""","""","""","""","""",video-slider-response,17,441262,0.0-17.0,ayq8yj6hc,8040,"[""video/yes_line_8_1cut.mp4""]",-50,yes_1,null,0,video/yes_line_8_1cut.mp4,2022-01-26 04:25:55,24.163.27.166,"Mozilla/5.0 (Macintosh; Intel Mac OS X 10_15_7) AppleWebKit/537.36 (KHTML, like Gecko) Chrome/97.0.4692.99 Safari/537.36",Macintosh,Chrome,97.0.4692.99,OS X,10_15_7,9b0944a1c4b7446d8b03129ce44dbcf3
17,1,"""","""","""","""","""",video-slider-response,18,455795,0.0-18.0,ayq8yj6hc,14527,"[""video/yes_line_7_1cut.mp4""]",-50,yes_1,null,0,video/yes_line_7_1cut.mp4,2022-01-26 04:25:55,24.163.27.166,"Mozilla/5.0 (Macintosh; Intel Mac OS X 10_15_7) AppleWebKit/537.36 (KHTML, like Gecko) Chrome/97.0.4692.99 Safari/537.36",Macintosh,Chrome,97.0.4692.99,OS X,10_15_7,9b0944a1c4b7446d8b03129ce44dbcf3
17,1,"""","""","""","""","""",survey-html-form,19,467946,0.0-19.0,ayq8yj6hc,12144,"""","[{""name"":""understand"",""value"":""yes""},{""name"":""problems"",""value"":""No""},{""name"":""age"",""value"":""33""},{""name"":""gender"",""value"":""male""},{""name"":""comments"",""value"":""None""}]",debrief,"""","""","""",2022-01-26 04:25:55,24.163.27.166,"Mozilla/5.0 (Macintosh; Intel Mac OS X 10_15_7) AppleWebKit/537.36 (KHTML, like Gecko) Chrome/97.0.4692.99 Safari/537.36",Macintosh,Chrome,97.0.4692.99,OS X,10_15_7,9b0944a1c4b7446d8b03129ce44dbcf3
17,1,"""","""","""","""","""",html-keyboard-response,20,479048,0.0-20.0,ayq8yj6hc,11099,"<div style=""font-size:20px;"">This task is now over. The completion code is: ayq8yj6hc Press space after you have the completion code to finish. Thank you for your participation! </div>", ,"""","""","""","""",2022-01-26 04:25:55,24.163.27.166,"Mozilla/5.0 (Macintosh; Intel Mac OS X 10_15_7) AppleWebKit/537.36 (KHTML, like Gecko) Chrome/97.0.4692.99 Safari/537.36",Macintosh,Chrome,97.0.4692.99,OS X,10_15_7,9b0944a1c4b7446d8b03129ce44dbcf3
18,1,true,false,[],[],[],preload,0,15116,0.0-0.0,5qrg0dtdr,"""","""","""","""","""","""","""",2022-01-26 04:28:56,72.195.249.190,"Mozilla/5.0 (Windows NT 10.0; Win64; x64) AppleWebKit/537.36 (KHTML, like Gecko) Chrome/97.0.4692.99 Safari/537.36",WebKit,Chrome,97.0.4692.99,Windows,10.0,9b0944a1c4b7446d8b03129ce44dbcf3
18,1,"""","""","""","""","""",html-keyboard-response,1,25061,0.0-1.0,5qrg0dtdr,9941,"<p style=""text-align:center;width:700px;""> Welcome to the experiment! This study takes most people around 15 minutes to complete. Please complete it in one sitting.</p>", ,"""","""","""","""",2022-01-26 04:28:56,72.195.249.190,"Mozilla/5.0 (Windows NT 10.0; Win64; x64) AppleWebKit/537.36 (KHTML, like Gecko) Chrome/97.0.4692.99 Safari/537.36",WebKit,Chrome,97.0.4692.99,Windows,10.0,9b0944a1c4b7446d8b03129ce44dbcf3
18,1,"""","""","""","""","""",html-keyboard-response,2,31253,0.0-2.0,5qrg0dtdr,6191,"<p style = ""font-size:16px;"">MIT Computational Cognitive Science Lab</p><h4>Press the 'y' key to consent.</h4><div style = ""background-color:#f2f2f2;""><h3>Informed Consent Form</h3><div style=""text-align:left;width:700px;""><p style = ""font-size:16px;"">In this HIT, you will be asked to read a set of instructions that describe a particular scenario, and you will then be asked to perform a simple task relating to that scenario. There will also be comprehension and attention checks. Participants who do not answer these checks correctly cannot be approved. In order to get credit for this HIT, you must read all the questions fully and answer honestly. You may only complete this HIT once. If you complete this HIT multiple times, you will be rejected.</p><p style = ""font-size:16px;"">This HIT is part of a MIT scientific research project. Your decision to complete this HIT is voluntary. There is no way for us to identify you. The only information we will have, in addition to your responses, is the time at which you completed the survey. The results of the research may be presented at scientific meetings or published in scientific journals. Pressing the ""Y"" key indicates that you are at least 18 years of age, and agree to complete this HIT voluntarily. Press the ""Y"" key to confirm your agreement and continue.</p></div>",y,"""","""","""","""",2022-01-26 04:28:56,72.195.249.190,"Mozilla/5.0 (Windows NT 10.0; Win64; x64) AppleWebKit/537.36 (KHTML, like Gecko) Chrome/97.0.4692.99 Safari/537.36",WebKit,Chrome,97.0.4692.99,Windows,10.0,9b0944a1c4b7446d8b03129ce44dbcf3
18,1,"""","""","""","""","""",survey-text,3,207640,0.0-3.0,5qrg0dtdr,176376,"""","{""instructions1"":""Each person needs to collect one bucket of water for each level the fastest for more points.""}",instructions,"""","""","""",2022-01-26 04:28:56,72.195.249.190,"Mozilla/5.0 (Windows NT 10.0; Win64; x64) AppleWebKit/537.36 (KHTML, like Gecko) Chrome/97.0.4692.99 Safari/537.36",WebKit,Chrome,97.0.4692.99,Windows,10.0,9b0944a1c4b7446d8b03129ce44dbcf3
18,1,"""","""","""","""","""",survey-text,4,285048,0.0-4.0,5qrg0dtdr,77385,"""","{""instructions2"":""One""}",instructions,"""","""","""",2022-01-26 04:28:56,72.195.249.190,"Mozilla/5.0 (Windows NT 10.0; Win64; x64) AppleWebKit/537.36 (KHTML, like Gecko) Chrome/97.0.4692.99 Safari/537.36",WebKit,Chrome,97.0.4692.99,Windows,10.0,9b0944a1c4b7446d8b03129ce44dbcf3
18,1,"""","""","""","""","""",survey-text,5,403418,0.0-5.0,5qrg0dtdr,118362,"""","{""instructions4"":""What would happen if everyone left the line instead of staying in line. Then how much better or worse it would be if everyone did stay in line.""}",instructions,"""","""","""",2022-01-26 04:28:56,72.195.249.190,"Mozilla/5.0 (Windows NT 10.0; Win64; x64) AppleWebKit/537.36 (KHTML, like Gecko) Chrome/97.0.4692.99 Safari/537.36",WebKit,Chrome,97.0.4692.99,Windows,10.0,9b0944a1c4b7446d8b03129ce44dbcf3
18,1,"""","""","""","""","""",video-slider-response,6,459614,0.0-6.0,5qrg0dtdr,56188,"[""video/yes_line_8_1cut.mp4""]",-50,yes_1,null,0,video/yes_line_8_1cut.mp4,2022-01-26 04:28:56,72.195.249.190,"Mozilla/5.0 (Windows NT 10.0; Win64; x64) AppleWebKit/537.36 (KHTML, like Gecko) Chrome/97.0.4692.99 Safari/537.36",WebKit,Chrome,97.0.4692.99,Windows,10.0,9b0944a1c4b7446d8b03129ce44dbcf3
18,1,"""","""","""","""","""",video-slider-response,7,480044,0.0-7.0,5qrg0dtdr,20425,"[""video/no_line_1_1cut.mp4""]",50,no_1,null,0,video/no_line_1_1cut.mp4,2022-01-26 04:28:56,72.195.249.190,"Mozilla/5.0 (Windows NT 10.0; Win64; x64) AppleWebKit/537.36 (KHTML, like Gecko) Chrome/97.0.4692.99 Safari/537.36",WebKit,Chrome,97.0.4692.99,Windows,10.0,9b0944a1c4b7446d8b03129ce44dbcf3
18,1,"""","""","""","""","""",video-slider-response,8,514760,0.0-8.0,5qrg0dtdr,34713,"[""video/no_line_3_1cut.mp4""]",-12,no_1,null,0,video/no_line_3_1cut.mp4,2022-01-26 04:28:56,72.195.249.190,"Mozilla/5.0 (Windows NT 10.0; Win64; x64) AppleWebKit/537.36 (KHTML, like Gecko) Chrome/97.0.4692.99 Safari/537.36",WebKit,Chrome,97.0.4692.99,Windows,10.0,9b0944a1c4b7446d8b03129ce44dbcf3
18,1,"""","""","""","""","""",video-slider-response,9,529195,0.0-9.0,5qrg0dtdr,14430,"[""video/yes_line_9_1cut.mp4""]",-50,yes_1,null,0,video/yes_line_9_1cut.mp4,2022-01-26 04:28:56,72.195.249.190,"Mozilla/5.0 (Windows NT 10.0; Win64; x64) AppleWebKit/537.36 (KHTML, like Gecko) Chrome/97.0.4692.99 Safari/537.36",WebKit,Chrome,97.0.4692.99,Windows,10.0,9b0944a1c4b7446d8b03129ce44dbcf3
18,1,"""","""","""","""","""",video-slider-response,10,549100,0.0-10.0,5qrg0dtdr,19904,"[""video/maybe_line_new_5_1cut.mp4""]",-50,maybe_1,null,0,video/maybe_line_new_5_1cut.mp4,2022-01-26 04:28:56,72.195.249.190,"Mozilla/5.0 (Windows NT 10.0; Win64; x64) AppleWebKit/537.36 (KHTML, like Gecko) Chrome/97.0.4692.99 Safari/537.36",WebKit,Chrome,97.0.4692.99,Windows,10.0,9b0944a1c4b7446d8b03129ce44dbcf3
18,1,"""","""","""","""","""",video-slider-response,11,574187,0.0-11.0,5qrg0dtdr,25084,"[""video/yes_line_10_1cut.mp4""]",-50,yes_1,null,0,video/yes_line_10_1cut.mp4,2022-01-26 04:28:56,72.195.249.190,"Mozilla/5.0 (Windows NT 10.0; Win64; x64) AppleWebKit/537.36 (KHTML, like Gecko) Chrome/97.0.4692.99 Safari/537.36",WebKit,Chrome,97.0.4692.99,Windows,10.0,9b0944a1c4b7446d8b03129ce44dbcf3
18,1,"""","""","""","""","""",video-slider-response,12,601377,0.0-12.0,5qrg0dtdr,27188,"[""video/no_line_2_1cut.mp4""]",-1,no_1,null,0,video/no_line_2_1cut.mp4,2022-01-26 04:28:56,72.195.249.190,"Mozilla/5.0 (Windows NT 10.0; Win64; x64) AppleWebKit/537.36 (KHTML, like Gecko) Chrome/97.0.4692.99 Safari/537.36",WebKit,Chrome,97.0.4692.99,Windows,10.0,9b0944a1c4b7446d8b03129ce44dbcf3
18,1,"""","""","""","""","""",video-slider-response,13,620164,0.0-13.0,5qrg0dtdr,18782,"[""video/maybe_line_new_1_1cut.mp4""]",0,maybe_1,null,0,video/maybe_line_new_1_1cut.mp4,2022-01-26 04:28:56,72.195.249.190,"Mozilla/5.0 (Windows NT 10.0; Win64; x64) AppleWebKit/537.36 (KHTML, like Gecko) Chrome/97.0.4692.99 Safari/537.36",WebKit,Chrome,97.0.4692.99,Windows,10.0,9b0944a1c4b7446d8b03129ce44dbcf3
18,1,"""","""","""","""","""",video-slider-response,14,643509,0.0-14.0,5qrg0dtdr,23343,"[""video/maybe_line_new_3_1cut.mp4""]",26,maybe_1,null,0,video/maybe_line_new_3_1cut.mp4,2022-01-26 04:28:56,72.195.249.190,"Mozilla/5.0 (Windows NT 10.0; Win64; x64) AppleWebKit/537.36 (KHTML, like Gecko) Chrome/97.0.4692.99 Safari/537.36",WebKit,Chrome,97.0.4692.99,Windows,10.0,9b0944a1c4b7446d8b03129ce44dbcf3
18,1,"""","""","""","""","""",video-slider-response,15,657823,0.0-15.0,5qrg0dtdr,14310,"[""video/maybe_line_new_4_1cut.mp4""]",-30,maybe_1,null,0,video/maybe_line_new_4_1cut.mp4,2022-01-26 04:28:56,72.195.249.190,"Mozilla/5.0 (Windows NT 10.0; Win64; x64) AppleWebKit/537.36 (KHTML, like Gecko) Chrome/97.0.4692.99 Safari/537.36",WebKit,Chrome,97.0.4692.99,Windows,10.0,9b0944a1c4b7446d8b03129ce44dbcf3
18,1,"""","""","""","""","""",video-slider-response,16,670722,0.0-16.0,5qrg0dtdr,12897,"[""video/maybe_line_new_2_1cut.mp4""]",1,maybe_1,null,0,video/maybe_line_new_2_1cut.mp4,2022-01-26 04:28:56,72.195.249.190,"Mozilla/5.0 (Windows NT 10.0; Win64; x64) AppleWebKit/537.36 (KHTML, like Gecko) Chrome/97.0.4692.99 Safari/537.36",WebKit,Chrome,97.0.4692.99,Windows,10.0,9b0944a1c4b7446d8b03129ce44dbcf3
18,1,"""","""","""","""","""",video-slider-response,17,680197,0.0-17.0,5qrg0dtdr,9473,"[""video/maybe_line_new_6_1cut.mp4""]",-50,maybe_1,null,0,video/maybe_line_new_6_1cut.mp4,2022-01-26 04:28:56,72.195.249.190,"Mozilla/5.0 (Windows NT 10.0; Win64; x64) AppleWebKit/537.36 (KHTML, like Gecko) Chrome/97.0.4692.99 Safari/537.36",WebKit,Chrome,97.0.4692.99,Windows,10.0,9b0944a1c4b7446d8b03129ce44dbcf3
18,1,"""","""","""","""","""",video-slider-response,18,689030,0.0-18.0,5qrg0dtdr,8831,"[""video/yes_line_7_1cut.mp4""]",-50,yes_1,null,0,video/yes_line_7_1cut.mp4,2022-01-26 04:28:56,72.195.249.190,"Mozilla/5.0 (Windows NT 10.0; Win64; x64) AppleWebKit/537.36 (KHTML, like Gecko) Chrome/97.0.4692.99 Safari/537.36",WebKit,Chrome,97.0.4692.99,Windows,10.0,9b0944a1c4b7446d8b03129ce44dbcf3
18,1,"""","""","""","""","""",survey-html-form,19,706029,0.0-19.0,5qrg0dtdr,16995,"""","[{""name"":""understand"",""value"":""yes""},{""name"":""problems"",""value"":""None""},{""name"":""age"",""value"":""49""},{""name"":""gender"",""value"":""female""},{""name"":""comments"",""value"":""None""}]",debrief,"""","""","""",2022-01-26 04:28:56,72.195.249.190,"Mozilla/5.0 (Windows NT 10.0; Win64; x64) AppleWebKit/537.36 (KHTML, like Gecko) Chrome/97.0.4692.99 Safari/537.36",WebKit,Chrome,97.0.4692.99,Windows,10.0,9b0944a1c4b7446d8b03129ce44dbcf3
18,1,"""","""","""","""","""",html-keyboard-response,20,715716,0.0-20.0,5qrg0dtdr,9686,"<div style=""font-size:20px;"">This task is now over. The completion code is: 5qrg0dtdr Press space after you have the completion code to finish. Thank you for your participation! </div>", ,"""","""","""","""",2022-01-26 04:28:56,72.195.249.190,"Mozilla/5.0 (Windows NT 10.0; Win64; x64) AppleWebKit/537.36 (KHTML, like Gecko) Chrome/97.0.4692.99 Safari/537.36",WebKit,Chrome,97.0.4692.99,Windows,10.0,9b0944a1c4b7446d8b03129ce44dbcf3
14,1,true,false,[],[],[],preload,0,904,0.0-0.0,npyoeer3k,"""","""","""","""","""","""","""",2022-01-26 04:23:31,184.176.83.153,"Mozilla/5.0 (Windows NT 10.0; Win64; x64) AppleWebKit/537.36 (KHTML, like Gecko) Chrome/97.0.4692.99 Safari/537.36",WebKit,Chrome,97.0.4692.99,Windows,10.0,9b0944a1c4b7446d8b03129ce44dbcf3
14,1,"""","""","""","""","""",html-keyboard-response,1,2999,0.0-1.0,npyoeer3k,2089,"<p style=""text-align:center;width:700px;""> Welcome to the experiment! This study takes most people around 15 minutes to complete. Please complete it in one sitting.</p>", ,"""","""","""","""",2022-01-26 04:23:31,184.176.83.153,"Mozilla/5.0 (Windows NT 10.0; Win64; x64) AppleWebKit/537.36 (KHTML, like Gecko) Chrome/97.0.4692.99 Safari/537.36",WebKit,Chrome,97.0.4692.99,Windows,10.0,9b0944a1c4b7446d8b03129ce44dbcf3
14,1,"""","""","""","""","""",html-keyboard-response,2,21834,0.0-2.0,npyoeer3k,18834,"<p style = ""font-size:16px;"">MIT Computational Cognitive Science Lab</p><h4>Press the 'y' key to consent.</h4><div style = ""background-color:#f2f2f2;""><h3>Informed Consent Form</h3><div style=""text-align:left;width:700px;""><p style = ""font-size:16px;"">In this HIT, you will be asked to read a set of instructions that describe a particular scenario, and you will then be asked to perform a simple task relating to that scenario. There will also be comprehension and attention checks. Participants who do not answer these checks correctly cannot be approved. In order to get credit for this HIT, you must read all the questions fully and answer honestly. You may only complete this HIT once. If you complete this HIT multiple times, you will be rejected.</p><p style = ""font-size:16px;"">This HIT is part of a MIT scientific research project. Your decision to complete this HIT is voluntary. There is no way for us to identify you. The only information we will have, in addition to your responses, is the time at which you completed the survey. The results of the research may be presented at scientific meetings or published in scientific journals. Pressing the ""Y"" key indicates that you are at least 18 years of age, and agree to complete this HIT voluntarily. Press the ""Y"" key to confirm your agreement and continue.</p></div>",y,"""","""","""","""",2022-01-26 04:23:31,184.176.83.153,"Mozilla/5.0 (Windows NT 10.0; Win64; x64) AppleWebKit/537.36 (KHTML, like Gecko) Chrome/97.0.4692.99 Safari/537.36",WebKit,Chrome,97.0.4692.99,Windows,10.0,9b0944a1c4b7446d8b03129ce44dbcf3
14,1,"""","""","""","""","""",survey-text,3,61746,0.0-3.0,npyoeer3k,39897,"""","{""instructions1"":""to collect water and bring it back to the wooden storage buckets""}",instructions,"""","""","""",2022-01-26 04:23:31,184.176.83.153,"Mozilla/5.0 (Windows NT 10.0; Win64; x64) AppleWebKit/537.36 (KHTML, like Gecko) Chrome/97.0.4692.99 Safari/537.36",WebKit,Chrome,97.0.4692.99,Windows,10.0,9b0944a1c4b7446d8b03129ce44dbcf3
14,1,"""","""","""","""","""",survey-text,4,92598,0.0-4.0,npyoeer3k,30829,"""","{""instructions2"":""one square""}",instructions,"""","""","""",2022-01-26 04:23:31,184.176.83.153,"Mozilla/5.0 (Windows NT 10.0; Win64; x64) AppleWebKit/537.36 (KHTML, like Gecko) Chrome/97.0.4692.99 Safari/537.36",WebKit,Chrome,97.0.4692.99,Windows,10.0,9b0944a1c4b7446d8b03129ce44dbcf3
14,1,"""","""","""","""","""",survey-text,5,186364,0.0-5.0,npyoeer3k,93750,"""","{""instructions4"":""To leave or stay in the line""}",instructions,"""","""","""",2022-01-26 04:23:31,184.176.83.153,"Mozilla/5.0 (Windows NT 10.0; Win64; x64) AppleWebKit/537.36 (KHTML, like Gecko) Chrome/97.0.4692.99 Safari/537.36",WebKit,Chrome,97.0.4692.99,Windows,10.0,9b0944a1c4b7446d8b03129ce44dbcf3
14,1,"""","""","""","""","""",video-slider-response,6,220616,0.0-6.0,npyoeer3k,34239,"[""video/maybe_line_new_4_1cut.mp4""]",-42,maybe_1,null,0,video/maybe_line_new_4_1cut.mp4,2022-01-26 04:23:31,184.176.83.153,"Mozilla/5.0 (Windows NT 10.0; Win64; x64) AppleWebKit/537.36 (KHTML, like Gecko) Chrome/97.0.4692.99 Safari/537.36",WebKit,Chrome,97.0.4692.99,Windows,10.0,9b0944a1c4b7446d8b03129ce44dbcf3
14,1,"""","""","""","""","""",video-slider-response,7,245273,0.0-7.0,npyoeer3k,24647,"[""video/yes_line_8_1cut.mp4""]",-50,yes_1,null,0,video/yes_line_8_1cut.mp4,2022-01-26 04:23:31,184.176.83.153,"Mozilla/5.0 (Windows NT 10.0; Win64; x64) AppleWebKit/537.36 (KHTML, like Gecko) Chrome/97.0.4692.99 Safari/537.36",WebKit,Chrome,97.0.4692.99,Windows,10.0,9b0944a1c4b7446d8b03129ce44dbcf3
14,1,"""","""","""","""","""",video-slider-response,8,267490,0.0-8.0,npyoeer3k,22212,"[""video/no_line_1_1cut.mp4""]",50,no_1,null,0,video/no_line_1_1cut.mp4,2022-01-26 04:23:31,184.176.83.153,"Mozilla/5.0 (Windows NT 10.0; Win64; x64) AppleWebKit/537.36 (KHTML, like Gecko) Chrome/97.0.4692.99 Safari/537.36",WebKit,Chrome,97.0.4692.99,Windows,10.0,9b0944a1c4b7446d8b03129ce44dbcf3
14,1,"""","""","""","""","""",video-slider-response,9,292758,0.0-9.0,npyoeer3k,25257,"[""video/maybe_line_new_6_1cut.mp4""]",-41,maybe_1,null,0,video/maybe_line_new_6_1cut.mp4,2022-01-26 04:23:31,184.176.83.153,"Mozilla/5.0 (Windows NT 10.0; Win64; x64) AppleWebKit/537.36 (KHTML, like Gecko) Chrome/97.0.4692.99 Safari/537.36",WebKit,Chrome,97.0.4692.99,Windows,10.0,9b0944a1c4b7446d8b03129ce44dbcf3
14,1,"""","""","""","""","""",video-slider-response,10,308184,0.0-10.0,npyoeer3k,15421,"[""video/yes_line_7_1cut.mp4""]",0,yes_1,null,0,video/yes_line_7_1cut.mp4,2022-01-26 04:23:31,184.176.83.153,"Mozilla/5.0 (Windows NT 10.0; Win64; x64) AppleWebKit/537.36 (KHTML, like Gecko) Chrome/97.0.4692.99 Safari/537.36",WebKit,Chrome,97.0.4692.99,Windows,10.0,9b0944a1c4b7446d8b03129ce44dbcf3
14,1,"""","""","""","""","""",video-slider-response,11,320129,0.0-11.0,npyoeer3k,11934,"[""video/maybe_line_new_1_1cut.mp4""]",-28,maybe_1,null,0,video/maybe_line_new_1_1cut.mp4,2022-01-26 04:23:31,184.176.83.153,"Mozilla/5.0 (Windows NT 10.0; Win64; x64) AppleWebKit/537.36 (KHTML, like Gecko) Chrome/97.0.4692.99 Safari/537.36",WebKit,Chrome,97.0.4692.99,Windows,10.0,9b0944a1c4b7446d8b03129ce44dbcf3
14,1,"""","""","""","""","""",video-slider-response,12,334020,0.0-12.0,npyoeer3k,13883,"[""video/no_line_3_1cut.mp4""]",-38,no_1,null,0,video/no_line_3_1cut.mp4,2022-01-26 04:23:31,184.176.83.153,"Mozilla/5.0 (Windows NT 10.0; Win64; x64) AppleWebKit/537.36 (KHTML, like Gecko) Chrome/97.0.4692.99 Safari/537.36",WebKit,Chrome,97.0.4692.99,Windows,10.0,9b0944a1c4b7446d8b03129ce44dbcf3
14,1,"""","""","""","""","""",video-slider-response,13,349474,0.0-13.0,npyoeer3k,15442,"[""video/yes_line_9_1cut.mp4""]",36,yes_1,null,0,video/yes_line_9_1cut.mp4,2022-01-26 04:23:31,184.176.83.153,"Mozilla/5.0 (Windows NT 10.0; Win64; x64) AppleWebKit/537.36 (KHTML, like Gecko) Chrome/97.0.4692.99 Safari/537.36",WebKit,Chrome,97.0.4692.99,Windows,10.0,9b0944a1c4b7446d8b03129ce44dbcf3
14,1,"""","""","""","""","""",video-slider-response,14,360969,0.0-14.0,npyoeer3k,11489,"[""video/no_line_2_1cut.mp4""]",-50,no_1,null,0,video/no_line_2_1cut.mp4,2022-01-26 04:23:31,184.176.83.153,"Mozilla/5.0 (Windows NT 10.0; Win64; x64) AppleWebKit/537.36 (KHTML, like Gecko) Chrome/97.0.4692.99 Safari/537.36",WebKit,Chrome,97.0.4692.99,Windows,10.0,9b0944a1c4b7446d8b03129ce44dbcf3
14,1,"""","""","""","""","""",video-slider-response,15,376409,0.0-15.0,npyoeer3k,15432,"[""video/maybe_line_new_5_1cut.mp4""]",-50,maybe_1,null,0,video/maybe_line_new_5_1cut.mp4,2022-01-26 04:23:31,184.176.83.153,"Mozilla/5.0 (Windows NT 10.0; Win64; x64) AppleWebKit/537.36 (KHTML, like Gecko) Chrome/97.0.4692.99 Safari/537.36",WebKit,Chrome,97.0.4692.99,Windows,10.0,9b0944a1c4b7446d8b03129ce44dbcf3
14,1,"""","""","""","""","""",video-slider-response,16,387553,0.0-16.0,npyoeer3k,11137,"[""video/maybe_line_new_3_1cut.mp4""]",50,maybe_1,null,0,video/maybe_line_new_3_1cut.mp4,2022-01-26 04:23:31,184.176.83.153,"Mozilla/5.0 (Windows NT 10.0; Win64; x64) AppleWebKit/537.36 (KHTML, like Gecko) Chrome/97.0.4692.99 Safari/537.36",WebKit,Chrome,97.0.4692.99,Windows,10.0,9b0944a1c4b7446d8b03129ce44dbcf3
14,1,"""","""","""","""","""",video-slider-response,17,394087,0.0-17.0,npyoeer3k,6521,"[""video/maybe_line_new_2_1cut.mp4""]",0,maybe_1,null,0,video/maybe_line_new_2_1cut.mp4,2022-01-26 04:23:31,184.176.83.153,"Mozilla/5.0 (Windows NT 10.0; Win64; x64) AppleWebKit/537.36 (KHTML, like Gecko) Chrome/97.0.4692.99 Safari/537.36",WebKit,Chrome,97.0.4692.99,Windows,10.0,9b0944a1c4b7446d8b03129ce44dbcf3
14,1,"""","""","""","""","""",video-slider-response,18,401442,0.0-18.0,npyoeer3k,7351,"[""video/yes_line_10_1cut.mp4""]",-40,yes_1,null,0,video/yes_line_10_1cut.mp4,2022-01-26 04:23:31,184.176.83.153,"Mozilla/5.0 (Windows NT 10.0; Win64; x64) AppleWebKit/537.36 (KHTML, like Gecko) Chrome/97.0.4692.99 Safari/537.36",WebKit,Chrome,97.0.4692.99,Windows,10.0,9b0944a1c4b7446d8b03129ce44dbcf3
14,1,"""","""","""","""","""",survey-html-form,19,450025,0.0-19.0,npyoeer3k,48577,"""","[{""name"":""understand"",""value"":""yes""},{""name"":""problems"",""value"":""Not necessarily a problem but at first, the question was confusing. I prefer questions to be more straight-forward than a guessing game about what the question is about AND what the question is actually asking. ""},{""name"":""age"",""value"":""34""},{""name"":""gender"",""value"":""female""},{""name"":""comments"",""value"":""}]",debrief,"""","""","""",2022-01-26 04:23:31,184.176.83.153,"Mozilla/5.0 (Windows NT 10.0; Win64; x64) AppleWebKit/537.36 (KHTML, like Gecko) Chrome/97.0.4692.99 Safari/537.36",WebKit,Chrome,97.0.4692.99,Windows,10.0,9b0944a1c4b7446d8b03129ce44dbcf3
14,1,"""","""","""","""","""",html-keyboard-response,20,488396,0.0-20.0,npyoeer3k,38366,"<div style=""font-size:20px;"">This task is now over. The completion code is: npyoeer3k Press space after you have the completion code to finish. Thank you for your participation! </div>", ,"""","""","""","""",2022-01-26 04:23:31,184.176.83.153,"Mozilla/5.0 (Windows NT 10.0; Win64; x64) AppleWebKit/537.36 (KHTML, like Gecko) Chrome/97.0.4692.99 Safari/537.36",WebKit,Chrome,97.0.4692.99,Windows,10.0,9b0944a1c4b7446d8b03129ce44dbcf3
19,1,true,false,[],[],[],preload,0,797,0.0-0.0,cyfv1xre1,"""","""","""","""","""","""","""",2022-01-26 04:29:11,68.248.147.9,"Mozilla/5.0 (Windows NT 10.0; Win64; x64) AppleWebKit/537.36 (KHTML, like Gecko) Chrome/97.0.4692.71 Safari/537.36",WebKit,Chrome,97.0.4692.71,Windows,10.0,9b0944a1c4b7446d8b03129ce44dbcf3
19,1,"""","""","""","""","""",html-keyboard-response,1,3575,0.0-1.0,cyfv1xre1,2772,"<p style=""text-align:center;width:700px;""> Welcome to the experiment! This study takes most people around 15 minutes to complete. Please complete it in one sitting.</p>", ,"""","""","""","""",2022-01-26 04:29:11,68.248.147.9,"Mozilla/5.0 (Windows NT 10.0; Win64; x64) AppleWebKit/537.36 (KHTML, like Gecko) Chrome/97.0.4692.71 Safari/537.36",WebKit,Chrome,97.0.4692.71,Windows,10.0,9b0944a1c4b7446d8b03129ce44dbcf3
19,1,"""","""","""","""","""",html-keyboard-response,2,9552,0.0-2.0,cyfv1xre1,5975,"<p style = ""font-size:16px;"">MIT Computational Cognitive Science Lab</p><h4>Press the 'y' key to consent.</h4><div style = ""background-color:#f2f2f2;""><h3>Informed Consent Form</h3><div style=""text-align:left;width:700px;""><p style = ""font-size:16px;"">In this HIT, you will be asked to read a set of instructions that describe a particular scenario, and you will then be asked to perform a simple task relating to that scenario. There will also be comprehension and attention checks. Participants who do not answer these checks correctly cannot be approved. In order to get credit for this HIT, you must read all the questions fully and answer honestly. You may only complete this HIT once. If you complete this HIT multiple times, you will be rejected.</p><p style = ""font-size:16px;"">This HIT is part of a MIT scientific research project. Your decision to complete this HIT is voluntary. There is no way for us to identify you. The only information we will have, in addition to your responses, is the time at which you completed the survey. The results of the research may be presented at scientific meetings or published in scientific journals. Pressing the ""Y"" key indicates that you are at least 18 years of age, and agree to complete this HIT voluntarily. Press the ""Y"" key to confirm your agreement and continue.</p></div>",y,"""","""","""","""",2022-01-26 04:29:11,68.248.147.9,"Mozilla/5.0 (Windows NT 10.0; Win64; x64) AppleWebKit/537.36 (KHTML, like Gecko) Chrome/97.0.4692.71 Safari/537.36",WebKit,Chrome,97.0.4692.71,Windows,10.0,9b0944a1c4b7446d8b03129ce44dbcf3
19,1,"""","""","""","""","""",survey-text,3,54032,0.0-3.0,cyfv1xre1,44468,"""","{""instructions1"":""get water in wooden bucket""}",instructions,"""","""","""",2022-01-26 04:29:11,68.248.147.9,"Mozilla/5.0 (Windows NT 10.0; Win64; x64) AppleWebKit/537.36 (KHTML, like Gecko) Chrome/97.0.4692.71 Safari/537.36",WebKit,Chrome,97.0.4692.71,Windows,10.0,9b0944a1c4b7446d8b03129ce44dbcf3
19,1,"""","""","""","""","""",survey-text,4,68707,0.0-4.0,cyfv1xre1,14654,"""","{""instructions2"":""1""}",instructions,"""","""","""",2022-01-26 04:29:11,68.248.147.9,"Mozilla/5.0 (Windows NT 10.0; Win64; x64) AppleWebKit/537.36 (KHTML, like Gecko) Chrome/97.0.4692.71 Safari/537.36",WebKit,Chrome,97.0.4692.71,Windows,10.0,9b0944a1c4b7446d8b03129ce44dbcf3
19,1,"""","""","""","""","""",survey-text,5,144069,0.0-5.0,cyfv1xre1,75347,"""","{""instructions4"":""what happens if all leave and better or worse to stay in line""}",instructions,"""","""","""",2022-01-26 04:29:11,68.248.147.9,"Mozilla/5.0 (Windows NT 10.0; Win64; x64) AppleWebKit/537.36 (KHTML, like Gecko) Chrome/97.0.4692.71 Safari/537.36",WebKit,Chrome,97.0.4692.71,Windows,10.0,9b0944a1c4b7446d8b03129ce44dbcf3
19,1,"""","""","""","""","""",video-slider-response,6,177464,0.0-6.0,cyfv1xre1,33383,"[""video/yes_line_9_1cut.mp4""]",-46,yes_1,null,0,video/yes_line_9_1cut.mp4,2022-01-26 04:29:11,68.248.147.9,"Mozilla/5.0 (Windows NT 10.0; Win64; x64) AppleWebKit/537.36 (KHTML, like Gecko) Chrome/97.0.4692.71 Safari/537.36",WebKit,Chrome,97.0.4692.71,Windows,10.0,9b0944a1c4b7446d8b03129ce44dbcf3
19,1,"""","""","""","""","""",video-slider-response,7,210473,0.0-7.0,cyfv1xre1,32993,"[""video/maybe_line_new_6_1cut.mp4""]",0,maybe_1,null,0,video/maybe_line_new_6_1cut.mp4,2022-01-26 04:29:11,68.248.147.9,"Mozilla/5.0 (Windows NT 10.0; Win64; x64) AppleWebKit/537.36 (KHTML, like Gecko) Chrome/97.0.4692.71 Safari/537.36",WebKit,Chrome,97.0.4692.71,Windows,10.0,9b0944a1c4b7446d8b03129ce44dbcf3
19,1,"""","""","""","""","""",video-slider-response,8,230265,0.0-8.0,cyfv1xre1,19777,"[""video/yes_line_7_1cut.mp4""]",-7,yes_1,null,0,video/yes_line_7_1cut.mp4,2022-01-26 04:29:11,68.248.147.9,"Mozilla/5.0 (Windows NT 10.0; Win64; x64) AppleWebKit/537.36 (KHTML, like Gecko) Chrome/97.0.4692.71 Safari/537.36",WebKit,Chrome,97.0.4692.71,Windows,10.0,9b0944a1c4b7446d8b03129ce44dbcf3
19,1,"""","""","""","""","""",video-slider-response,9,257759,0.0-9.0,cyfv1xre1,27481,"[""video/yes_line_8_1cut.mp4""]",-37,yes_1,null,0,video/yes_line_8_1cut.mp4,2022-01-26 04:29:11,68.248.147.9,"Mozilla/5.0 (Windows NT 10.0; Win64; x64) AppleWebKit/537.36 (KHTML, like Gecko) Chrome/97.0.4692.71 Safari/537.36",WebKit,Chrome,97.0.4692.71,Windows,10.0,9b0944a1c4b7446d8b03129ce44dbcf3
19,1,"""","""","""","""","""",video-slider-response,10,280894,0.0-10.0,cyfv1xre1,23127,"[""video/maybe_line_new_1_1cut.mp4""]",9,maybe_1,null,0,video/maybe_line_new_1_1cut.mp4,2022-01-26 04:29:11,68.248.147.9,"Mozilla/5.0 (Windows NT 10.0; Win64; x64) AppleWebKit/537.36 (KHTML, like Gecko) Chrome/97.0.4692.71 Safari/537.36",WebKit,Chrome,97.0.4692.71,Windows,10.0,9b0944a1c4b7446d8b03129ce44dbcf3
19,1,"""","""","""","""","""",video-slider-response,11,294826,0.0-11.0,cyfv1xre1,13919,"[""video/yes_line_10_1cut.mp4""]",-50,yes_1,null,0,video/yes_line_10_1cut.mp4,2022-01-26 04:29:11,68.248.147.9,"Mozilla/5.0 (Windows NT 10.0; Win64; x64) AppleWebKit/537.36 (KHTML, like Gecko) Chrome/97.0.4692.71 Safari/537.36",WebKit,Chrome,97.0.4692.71,Windows,10.0,9b0944a1c4b7446d8b03129ce44dbcf3
19,1,"""","""","""","""","""",video-slider-response,12,310515,0.0-12.0,cyfv1xre1,15683,"[""video/maybe_line_new_3_1cut.mp4""]",44,maybe_1,null,0,video/maybe_line_new_3_1cut.mp4,2022-01-26 04:29:11,68.248.147.9,"Mozilla/5.0 (Windows NT 10.0; Win64; x64) AppleWebKit/537.36 (KHTML, like Gecko) Chrome/97.0.4692.71 Safari/537.36",WebKit,Chrome,97.0.4692.71,Windows,10.0,9b0944a1c4b7446d8b03129ce44dbcf3
19,1,"""","""","""","""","""",video-slider-response,13,331817,0.0-13.0,cyfv1xre1,21292,"[""video/maybe_line_new_4_1cut.mp4""]",19,maybe_1,null,0,video/maybe_line_new_4_1cut.mp4,2022-01-26 04:29:11,68.248.147.9,"Mozilla/5.0 (Windows NT 10.0; Win64; x64) AppleWebKit/537.36 (KHTML, like Gecko) Chrome/97.0.4692.71 Safari/537.36",WebKit,Chrome,97.0.4692.71,Windows,10.0,9b0944a1c4b7446d8b03129ce44dbcf3
19,1,"""","""","""","""","""",video-slider-response,14,356899,0.0-14.0,cyfv1xre1,25078,"[""video/maybe_line_new_2_1cut.mp4""]",37,maybe_1,null,0,video/maybe_line_new_2_1cut.mp4,2022-01-26 04:29:11,68.248.147.9,"Mozilla/5.0 (Windows NT 10.0; Win64; x64) AppleWebKit/537.36 (KHTML, like Gecko) Chrome/97.0.4692.71 Safari/537.36",WebKit,Chrome,97.0.4692.71,Windows,10.0,9b0944a1c4b7446d8b03129ce44dbcf3
19,1,"""","""","""","""","""",video-slider-response,15,368887,0.0-15.0,cyfv1xre1,11976,"[""video/no_line_1_1cut.mp4""]",50,no_1,null,0,video/no_line_1_1cut.mp4,2022-01-26 04:29:11,68.248.147.9,"Mozilla/5.0 (Windows NT 10.0; Win64; x64) AppleWebKit/537.36 (KHTML, like Gecko) Chrome/97.0.4692.71 Safari/537.36",WebKit,Chrome,97.0.4692.71,Windows,10.0,9b0944a1c4b7446d8b03129ce44dbcf3
19,1,"""","""","""","""","""",video-slider-response,16,395193,0.0-16.0,cyfv1xre1,26298,"[""video/maybe_line_new_5_1cut.mp4""]",-49,maybe_1,null,0,video/maybe_line_new_5_1cut.mp4,2022-01-26 04:29:11,68.248.147.9,"Mozilla/5.0 (Windows NT 10.0; Win64; x64) AppleWebKit/537.36 (KHTML, like Gecko) Chrome/97.0.4692.71 Safari/537.36",WebKit,Chrome,97.0.4692.71,Windows,10.0,9b0944a1c4b7446d8b03129ce44dbcf3
19,1,"""","""","""","""","""",video-slider-response,17,410244,0.0-17.0,cyfv1xre1,15039,"[""video/no_line_2_1cut.mp4""]",40,no_1,null,0,video/no_line_2_1cut.mp4,2022-01-26 04:29:11,68.248.147.9,"Mozilla/5.0 (Windows NT 10.0; Win64; x64) AppleWebKit/537.36 (KHTML, like Gecko) Chrome/97.0.4692.71 Safari/537.36",WebKit,Chrome,97.0.4692.71,Windows,10.0,9b0944a1c4b7446d8b03129ce44dbcf3
19,1,"""","""","""","""","""",video-slider-response,18,424517,0.0-18.0,cyfv1xre1,14268,"[""video/no_line_3_1cut.mp4""]",50,no_1,null,0,video/no_line_3_1cut.mp4,2022-01-26 04:29:11,68.248.147.9,"Mozilla/5.0 (Windows NT 10.0; Win64; x64) AppleWebKit/537.36 (KHTML, like Gecko) Chrome/97.0.4692.71 Safari/537.36",WebKit,Chrome,97.0.4692.71,Windows,10.0,9b0944a1c4b7446d8b03129ce44dbcf3
19,1,"""","""","""","""","""",survey-html-form,19,451888,0.0-19.0,cyfv1xre1,27366,"""","[{""name"":""understand"",""value"":""yes""},{""name"":""problems"",""value"":""no""},{""name"":""age"",""value"":""54""},{""name"":""gender"",""value"":""female""},{""name"":""comments"",""value"":""I have been enjoying these""}]",debrief,"""","""","""",2022-01-26 04:29:11,68.248.147.9,"Mozilla/5.0 (Windows NT 10.0; Win64; x64) AppleWebKit/537.36 (KHTML, like Gecko) Chrome/97.0.4692.71 Safari/537.36",WebKit,Chrome,97.0.4692.71,Windows,10.0,9b0944a1c4b7446d8b03129ce44dbcf3
19,1,"""","""","""","""","""",html-keyboard-response,20,492039,0.0-20.0,cyfv1xre1,40147,"<div style=""font-size:20px;"">This task is now over. The completion code is: cyfv1xre1 Press space after you have the completion code to finish. Thank you for your participation! </div>", ,"""","""","""","""",2022-01-26 04:29:11,68.248.147.9,"Mozilla/5.0 (Windows NT 10.0; Win64; x64) AppleWebKit/537.36 (KHTML, like Gecko) Chrome/97.0.4692.71 Safari/537.36",WebKit,Chrome,97.0.4692.71,Windows,10.0,9b0944a1c4b7446d8b03129ce44dbcf3
2,1,true,false,[],[],[],preload,0,1245,0.0-0.0,7m4u2l1no,"""","""","""","""","""","""","""",2022-01-26 04:19:39,69.237.15.21,"Mozilla/5.0 (Windows NT 10.0; Win64; x64) AppleWebKit/537.36 (KHTML, like Gecko) Chrome/97.0.4692.99 Safari/537.36",WebKit,Chrome,97.0.4692.99,Windows,10.0,9b0944a1c4b7446d8b03129ce44dbcf3
2,1,"""","""","""","""","""",html-keyboard-response,1,46110,0.0-1.0,7m4u2l1no,44863,"<p style=""text-align:center;width:700px;""> Welcome to the experiment! This study takes most people around 15 minutes to complete. Please complete it in one sitting.</p>", ,"""","""","""","""",2022-01-26 04:19:39,69.237.15.21,"Mozilla/5.0 (Windows NT 10.0; Win64; x64) AppleWebKit/537.36 (KHTML, like Gecko) Chrome/97.0.4692.99 Safari/537.36",WebKit,Chrome,97.0.4692.99,Windows,10.0,9b0944a1c4b7446d8b03129ce44dbcf3
2,1,"""","""","""","""","""",html-keyboard-response,2,48566,0.0-2.0,7m4u2l1no,2455,"<p style = ""font-size:16px;"">MIT Computational Cognitive Science Lab</p><h4>Press the 'y' key to consent.</h4><div style = ""background-color:#f2f2f2;""><h3>Informed Consent Form</h3><div style=""text-align:left;width:700px;""><p style = ""font-size:16px;"">In this HIT, you will be asked to read a set of instructions that describe a particular scenario, and you will then be asked to perform a simple task relating to that scenario. There will also be comprehension and attention checks. Participants who do not answer these checks correctly cannot be approved. In order to get credit for this HIT, you must read all the questions fully and answer honestly. You may only complete this HIT once. If you complete this HIT multiple times, you will be rejected.</p><p style = ""font-size:16px;"">This HIT is part of a MIT scientific research project. Your decision to complete this HIT is voluntary. There is no way for us to identify you. The only information we will have, in addition to your responses, is the time at which you completed the survey. The results of the research may be presented at scientific meetings or published in scientific journals. Pressing the ""Y"" key indicates that you are at least 18 years of age, and agree to complete this HIT voluntarily. Press the ""Y"" key to confirm your agreement and continue.</p></div>",y,"""","""","""","""",2022-01-26 04:19:39,69.237.15.21,"Mozilla/5.0 (Windows NT 10.0; Win64; x64) AppleWebKit/537.36 (KHTML, like Gecko) Chrome/97.0.4692.99 Safari/537.36",WebKit,Chrome,97.0.4692.99,Windows,10.0,9b0944a1c4b7446d8b03129ce44dbcf3
2,1,"""","""","""","""","""",survey-text,3,90854,0.0-3.0,7m4u2l1no,42283,"""","{""instructions1"":""To get one bucket of water and return it as fast as they can""}",instructions,"""","""","""",2022-01-26 04:19:39,69.237.15.21,"Mozilla/5.0 (Windows NT 10.0; Win64; x64) AppleWebKit/537.36 (KHTML, like Gecko) Chrome/97.0.4692.99 Safari/537.36",WebKit,Chrome,97.0.4692.99,Windows,10.0,9b0944a1c4b7446d8b03129ce44dbcf3
2,1,"""","""","""","""","""",survey-text,4,116406,0.0-4.0,7m4u2l1no,25545,"""","{""instructions2"":""1""}",instructions,"""","""","""",2022-01-26 04:19:39,69.237.15.21,"Mozilla/5.0 (Windows NT 10.0; Win64; x64) AppleWebKit/537.36 (KHTML, like Gecko) Chrome/97.0.4692.99 Safari/537.36",WebKit,Chrome,97.0.4692.99,Windows,10.0,9b0944a1c4b7446d8b03129ce44dbcf3
2,1,"""","""","""","""","""",survey-text,5,174422,0.0-5.0,7m4u2l1no,58012,"""","{""instructions4"":""What would happen if everyone left the line, and how better or worse it'd be if everyone stayed in line.""}",instructions,"""","""","""",2022-01-26 04:19:39,69.237.15.21,"Mozilla/5.0 (Windows NT 10.0; Win64; x64) AppleWebKit/537.36 (KHTML, like Gecko) Chrome/97.0.4692.99 Safari/537.36",WebKit,Chrome,97.0.4692.99,Windows,10.0,9b0944a1c4b7446d8b03129ce44dbcf3
2,1,"""","""","""","""","""",video-slider-response,6,187478,0.0-6.0,7m4u2l1no,13052,"[""video/no_line_2_1cut.mp4""]",50,no_1,null,0,video/no_line_2_1cut.mp4,2022-01-26 04:19:39,69.237.15.21,"Mozilla/5.0 (Windows NT 10.0; Win64; x64) AppleWebKit/537.36 (KHTML, like Gecko) Chrome/97.0.4692.99 Safari/537.36",WebKit,Chrome,97.0.4692.99,Windows,10.0,9b0944a1c4b7446d8b03129ce44dbcf3
2,1,"""","""","""","""","""",video-slider-response,7,195046,0.0-7.0,7m4u2l1no,7565,"[""video/no_line_1_1cut.mp4""]",28,no_1,null,0,video/no_line_1_1cut.mp4,2022-01-26 04:19:39,69.237.15.21,"Mozilla/5.0 (Windows NT 10.0; Win64; x64) AppleWebKit/537.36 (KHTML, like Gecko) Chrome/97.0.4692.99 Safari/537.36",WebKit,Chrome,97.0.4692.99,Windows,10.0,9b0944a1c4b7446d8b03129ce44dbcf3
2,1,"""","""","""","""","""",video-slider-response,8,214886,0.0-8.0,7m4u2l1no,19837,"[""video/maybe_line_new_1_1cut.mp4""]",13,maybe_1,null,0,video/maybe_line_new_1_1cut.mp4,2022-01-26 04:19:39,69.237.15.21,"Mozilla/5.0 (Windows NT 10.0; Win64; x64) AppleWebKit/537.36 (KHTML, like Gecko) Chrome/97.0.4692.99 Safari/537.36",WebKit,Chrome,97.0.4692.99,Windows,10.0,9b0944a1c4b7446d8b03129ce44dbcf3
2,1,"""","""","""","""","""",video-slider-response,9,222238,0.0-9.0,7m4u2l1no,7349,"[""video/yes_line_10_1cut.mp4""]",-25,yes_1,null,0,video/yes_line_10_1cut.mp4,2022-01-26 04:19:39,69.237.15.21,"Mozilla/5.0 (Windows NT 10.0; Win64; x64) AppleWebKit/537.36 (KHTML, like Gecko) Chrome/97.0.4692.99 Safari/537.36",WebKit,Chrome,97.0.4692.99,Windows,10.0,9b0944a1c4b7446d8b03129ce44dbcf3
2,1,"""","""","""","""","""",video-slider-response,10,235054,0.0-10.0,7m4u2l1no,12813,"[""video/maybe_line_new_6_1cut.mp4""]",-31,maybe_1,null,0,video/maybe_line_new_6_1cut.mp4,2022-01-26 04:19:39,69.237.15.21,"Mozilla/5.0 (Windows NT 10.0; Win64; x64) AppleWebKit/537.36 (KHTML, like Gecko) Chrome/97.0.4692.99 Safari/537.36",WebKit,Chrome,97.0.4692.99,Windows,10.0,9b0944a1c4b7446d8b03129ce44dbcf3
2,1,"""","""","""","""","""",video-slider-response,11,243814,0.0-11.0,7m4u2l1no,8756,"[""video/maybe_line_new_2_1cut.mp4""]",15,maybe_1,null,0,video/maybe_line_new_2_1cut.mp4,2022-01-26 04:19:39,69.237.15.21,"Mozilla/5.0 (Windows NT 10.0; Win64; x64) AppleWebKit/537.36 (KHTML, like Gecko) Chrome/97.0.4692.99 Safari/537.36",WebKit,Chrome,97.0.4692.99,Windows,10.0,9b0944a1c4b7446d8b03129ce44dbcf3
2,1,"""","""","""","""","""",video-slider-response,12,252334,0.0-12.0,7m4u2l1no,8518,"[""video/maybe_line_new_5_1cut.mp4""]",-50,maybe_1,null,0,video/maybe_line_new_5_1cut.mp4,2022-01-26 04:19:39,69.237.15.21,"Mozilla/5.0 (Windows NT 10.0; Win64; x64) AppleWebKit/537.36 (KHTML, like Gecko) Chrome/97.0.4692.99 Safari/537.36",WebKit,Chrome,97.0.4692.99,Windows,10.0,9b0944a1c4b7446d8b03129ce44dbcf3
2,1,"""","""","""","""","""",video-slider-response,13,260174,0.0-13.0,7m4u2l1no,7837,"[""video/no_line_3_1cut.mp4""]",30,no_1,null,0,video/no_line_3_1cut.mp4,2022-01-26 04:19:39,69.237.15.21,"Mozilla/5.0 (Windows NT 10.0; Win64; x64) AppleWebKit/537.36 (KHTML, like Gecko) Chrome/97.0.4692.99 Safari/537.36",WebKit,Chrome,97.0.4692.99,Windows,10.0,9b0944a1c4b7446d8b03129ce44dbcf3
2,1,"""","""","""","""","""",video-slider-response,14,266846,0.0-14.0,7m4u2l1no,6669,"[""video/yes_line_8_1cut.mp4""]",-30,yes_1,null,0,video/yes_line_8_1cut.mp4,2022-01-26 04:19:39,69.237.15.21,"Mozilla/5.0 (Windows NT 10.0; Win64; x64) AppleWebKit/537.36 (KHTML, like Gecko) Chrome/97.0.4692.99 Safari/537.36",WebKit,Chrome,97.0.4692.99,Windows,10.0,9b0944a1c4b7446d8b03129ce44dbcf3
2,1,"""","""","""","""","""",video-slider-response,15,276318,0.0-15.0,7m4u2l1no,9468,"[""video/yes_line_9_1cut.mp4""]",-20,yes_1,null,0,video/yes_line_9_1cut.mp4,2022-01-26 04:19:39,69.237.15.21,"Mozilla/5.0 (Windows NT 10.0; Win64; x64) AppleWebKit/537.36 (KHTML, like Gecko) Chrome/97.0.4692.99 Safari/537.36",WebKit,Chrome,97.0.4692.99,Windows,10.0,9b0944a1c4b7446d8b03129ce44dbcf3
2,1,"""","""","""","""","""",video-slider-response,16,284278,0.0-16.0,7m4u2l1no,7958,"[""video/yes_line_7_1cut.mp4""]",-35,yes_1,null,0,video/yes_line_7_1cut.mp4,2022-01-26 04:19:39,69.237.15.21,"Mozilla/5.0 (Windows NT 10.0; Win64; x64) AppleWebKit/537.36 (KHTML, like Gecko) Chrome/97.0.4692.99 Safari/537.36",WebKit,Chrome,97.0.4692.99,Windows,10.0,9b0944a1c4b7446d8b03129ce44dbcf3
2,1,"""","""","""","""","""",video-slider-response,17,303030,0.0-17.0,7m4u2l1no,18749,"[""video/maybe_line_new_4_1cut.mp4""]",14,maybe_1,null,0,video/maybe_line_new_4_1cut.mp4,2022-01-26 04:19:39,69.237.15.21,"Mozilla/5.0 (Windows NT 10.0; Win64; x64) AppleWebKit/537.36 (KHTML, like Gecko) Chrome/97.0.4692.99 Safari/537.36",WebKit,Chrome,97.0.4692.99,Windows,10.0,9b0944a1c4b7446d8b03129ce44dbcf3
2,1,"""","""","""","""","""",video-slider-response,18,310758,0.0-18.0,7m4u2l1no,7725,"[""video/maybe_line_new_3_1cut.mp4""]",-17,maybe_1,null,0,video/maybe_line_new_3_1cut.mp4,2022-01-26 04:19:39,69.237.15.21,"Mozilla/5.0 (Windows NT 10.0; Win64; x64) AppleWebKit/537.36 (KHTML, like Gecko) Chrome/97.0.4692.99 Safari/537.36",WebKit,Chrome,97.0.4692.99,Windows,10.0,9b0944a1c4b7446d8b03129ce44dbcf3
2,1,"""","""","""","""","""",survey-html-form,19,322711,0.0-19.0,7m4u2l1no,11950,"""","[{""name"":""understand"",""value"":""yes""},{""name"":""problems"",""value"":""No""},{""name"":""age"",""value"":""23""},{""name"":""gender"",""value"":""male""},{""name"":""comments"",""value"":""Thanks, fun stuff.""}]",debrief,"""","""","""",2022-01-26 04:19:39,69.237.15.21,"Mozilla/5.0 (Windows NT 10.0; Win64; x64) AppleWebKit/537.36 (KHTML, like Gecko) Chrome/97.0.4692.99 Safari/537.36",WebKit,Chrome,97.0.4692.99,Windows,10.0,9b0944a1c4b7446d8b03129ce44dbcf3
2,1,"""","""","""","""","""",html-keyboard-response,20,347366,0.0-20.0,7m4u2l1no,24654,"<div style=""font-size:20px;"">This task is now over. The completion code is: 7m4u2l1no Press space after you have the completion code to finish. Thank you for your participation! </div>", ,"""","""","""","""",2022-01-26 04:19:39,69.237.15.21,"Mozilla/5.0 (Windows NT 10.0; Win64; x64) AppleWebKit/537.36 (KHTML, like Gecko) Chrome/97.0.4692.99 Safari/537.36",WebKit,Chrome,97.0.4692.99,Windows,10.0,9b0944a1c4b7446d8b03129ce44dbcf3
25,1,true,false,[],[],[],preload,0,608,0.0-0.0,cwna6yvlm,"""","""","""","""","""","""","""",2022-01-26 04:32:32,47.203.92.56,"Mozilla/5.0 (Windows NT 10.0; Win64; x64) AppleWebKit/537.36 (KHTML, like Gecko) Chrome/94.0.4606.54 Safari/537.36 Edg/93.0.961.38",WebKit,Edge,93.0.961.38,Windows,10.0,9b0944a1c4b7446d8b03129ce44dbcf3
25,1,"""","""","""","""","""",html-keyboard-response,1,3054,0.0-1.0,cwna6yvlm,2444,"<p style=""text-align:center;width:700px;""> Welcome to the experiment! This study takes most people around 15 minutes to complete. Please complete it in one sitting.</p>", ,"""","""","""","""",2022-01-26 04:32:32,47.203.92.56,"Mozilla/5.0 (Windows NT 10.0; Win64; x64) AppleWebKit/537.36 (KHTML, like Gecko) Chrome/94.0.4606.54 Safari/537.36 Edg/93.0.961.38",WebKit,Edge,93.0.961.38,Windows,10.0,9b0944a1c4b7446d8b03129ce44dbcf3
25,1,"""","""","""","""","""",html-keyboard-response,2,16172,0.0-2.0,cwna6yvlm,13117,"<p style = ""font-size:16px;"">MIT Computational Cognitive Science Lab</p><h4>Press the 'y' key to consent.</h4><div style = ""background-color:#f2f2f2;""><h3>Informed Consent Form</h3><div style=""text-align:left;width:700px;""><p style = ""font-size:16px;"">In this HIT, you will be asked to read a set of instructions that describe a particular scenario, and you will then be asked to perform a simple task relating to that scenario. There will also be comprehension and attention checks. Participants who do not answer these checks correctly cannot be approved. In order to get credit for this HIT, you must read all the questions fully and answer honestly. You may only complete this HIT once. If you complete this HIT multiple times, you will be rejected.</p><p style = ""font-size:16px;"">This HIT is part of a MIT scientific research project. Your decision to complete this HIT is voluntary. There is no way for us to identify you. The only information we will have, in addition to your responses, is the time at which you completed the survey. The results of the research may be presented at scientific meetings or published in scientific journals. Pressing the ""Y"" key indicates that you are at least 18 years of age, and agree to complete this HIT voluntarily. Press the ""Y"" key to confirm your agreement and continue.</p></div>",y,"""","""","""","""",2022-01-26 04:32:32,47.203.92.56,"Mozilla/5.0 (Windows NT 10.0; Win64; x64) AppleWebKit/537.36 (KHTML, like Gecko) Chrome/94.0.4606.54 Safari/537.36 Edg/93.0.961.38",WebKit,Edge,93.0.961.38,Windows,10.0,9b0944a1c4b7446d8b03129ce44dbcf3
25,1,"""","""","""","""","""",survey-text,3,29016,0.0-3.0,cwna6yvlm,12840,"""","{""instructions1"":""collect water and store in bucket as fast as possible""}",instructions,"""","""","""",2022-01-26 04:32:32,47.203.92.56,"Mozilla/5.0 (Windows NT 10.0; Win64; x64) AppleWebKit/537.36 (KHTML, like Gecko) Chrome/94.0.4606.54 Safari/537.36 Edg/93.0.961.38",WebKit,Edge,93.0.961.38,Windows,10.0,9b0944a1c4b7446d8b03129ce44dbcf3
25,1,"""","""","""","""","""",survey-text,4,58904,0.0-4.0,cwna6yvlm,29880,"""","{""instructions2"":""one""}",instructions,"""","""","""",2022-01-26 04:32:32,47.203.92.56,"Mozilla/5.0 (Windows NT 10.0; Win64; x64) AppleWebKit/537.36 (KHTML, like Gecko) Chrome/94.0.4606.54 Safari/537.36 Edg/93.0.961.38",WebKit,Edge,93.0.961.38,Windows,10.0,9b0944a1c4b7446d8b03129ce44dbcf3
25,1,"""","""","""","""","""",survey-text,5,106206,0.0-5.0,cwna6yvlm,47299,"""","{""instructions4"":""what would happen if everyone left the line and if it would be better or worse if they stayed in line""}",instructions,"""","""","""",2022-01-26 04:32:32,47.203.92.56,"Mozilla/5.0 (Windows NT 10.0; Win64; x64) AppleWebKit/537.36 (KHTML, like Gecko) Chrome/94.0.4606.54 Safari/537.36 Edg/93.0.961.38",WebKit,Edge,93.0.961.38,Windows,10.0,9b0944a1c4b7446d8b03129ce44dbcf3
25,1,"""","""","""","""","""",video-slider-response,6,117029,0.0-6.0,cwna6yvlm,10820,"[""video/yes_line_7_1cut.mp4""]",-50,yes_1,null,0,video/yes_line_7_1cut.mp4,2022-01-26 04:32:32,47.203.92.56,"Mozilla/5.0 (Windows NT 10.0; Win64; x64) AppleWebKit/537.36 (KHTML, like Gecko) Chrome/94.0.4606.54 Safari/537.36 Edg/93.0.961.38",WebKit,Edge,93.0.961.38,Windows,10.0,9b0944a1c4b7446d8b03129ce44dbcf3
25,1,"""","""","""","""","""",video-slider-response,7,127057,0.0-7.0,cwna6yvlm,10023,"[""video/maybe_line_new_2_1cut.mp4""]",50,maybe_1,null,0,video/maybe_line_new_2_1cut.mp4,2022-01-26 04:32:32,47.203.92.56,"Mozilla/5.0 (Windows NT 10.0; Win64; x64) AppleWebKit/537.36 (KHTML, like Gecko) Chrome/94.0.4606.54 Safari/537.36 Edg/93.0.961.38",WebKit,Edge,93.0.961.38,Windows,10.0,9b0944a1c4b7446d8b03129ce44dbcf3
25,1,"""","""","""","""","""",video-slider-response,8,154049,0.0-8.0,cwna6yvlm,26991,"[""video/maybe_line_new_3_1cut.mp4""]",18,maybe_1,null,0,video/maybe_line_new_3_1cut.mp4,2022-01-26 04:32:32,47.203.92.56,"Mozilla/5.0 (Windows NT 10.0; Win64; x64) AppleWebKit/537.36 (KHTML, like Gecko) Chrome/94.0.4606.54 Safari/537.36 Edg/93.0.961.38",WebKit,Edge,93.0.961.38,Windows,10.0,9b0944a1c4b7446d8b03129ce44dbcf3
25,1,"""","""","""","""","""",video-slider-response,9,159442,0.0-9.0,cwna6yvlm,5390,"[""video/no_line_3_1cut.mp4""]",50,no_1,null,0,video/no_line_3_1cut.mp4,2022-01-26 04:32:32,47.203.92.56,"Mozilla/5.0 (Windows NT 10.0; Win64; x64) AppleWebKit/537.36 (KHTML, like Gecko) Chrome/94.0.4606.54 Safari/537.36 Edg/93.0.961.38",WebKit,Edge,93.0.961.38,Windows,10.0,9b0944a1c4b7446d8b03129ce44dbcf3
25,1,"""","""","""","""","""",video-slider-response,10,168217,0.0-10.0,cwna6yvlm,8773,"[""video/maybe_line_new_6_1cut.mp4""]",-33,maybe_1,null,0,video/maybe_line_new_6_1cut.mp4,2022-01-26 04:32:32,47.203.92.56,"Mozilla/5.0 (Windows NT 10.0; Win64; x64) AppleWebKit/537.36 (KHTML, like Gecko) Chrome/94.0.4606.54 Safari/537.36 Edg/93.0.961.38",WebKit,Edge,93.0.961.38,Windows,10.0,9b0944a1c4b7446d8b03129ce44dbcf3
25,1,"""","""","""","""","""",video-slider-response,11,174569,0.0-11.0,cwna6yvlm,6349,"[""video/yes_line_9_1cut.mp4""]",-40,yes_1,null,0,video/yes_line_9_1cut.mp4,2022-01-26 04:32:32,47.203.92.56,"Mozilla/5.0 (Windows NT 10.0; Win64; x64) AppleWebKit/537.36 (KHTML, like Gecko) Chrome/94.0.4606.54 Safari/537.36 Edg/93.0.961.38",WebKit,Edge,93.0.961.38,Windows,10.0,9b0944a1c4b7446d8b03129ce44dbcf3
25,1,"""","""","""","""","""",video-slider-response,12,179609,0.0-12.0,cwna6yvlm,5038,"[""video/no_line_2_1cut.mp4""]",50,no_1,null,0,video/no_line_2_1cut.mp4,2022-01-26 04:32:32,47.203.92.56,"Mozilla/5.0 (Windows NT 10.0; Win64; x64) AppleWebKit/537.36 (KHTML, like Gecko) Chrome/94.0.4606.54 Safari/537.36 Edg/93.0.961.38",WebKit,Edge,93.0.961.38,Windows,10.0,9b0944a1c4b7446d8b03129ce44dbcf3
25,1,"""","""","""","""","""",video-slider-response,13,187477,0.0-13.0,cwna6yvlm,7865,"[""video/maybe_line_new_4_1cut.mp4""]",19,maybe_1,null,0,video/maybe_line_new_4_1cut.mp4,2022-01-26 04:32:32,47.203.92.56,"Mozilla/5.0 (Windows NT 10.0; Win64; x64) AppleWebKit/537.36 (KHTML, like Gecko) Chrome/94.0.4606.54 Safari/537.36 Edg/93.0.961.38",WebKit,Edge,93.0.961.38,Windows,10.0,9b0944a1c4b7446d8b03129ce44dbcf3
25,1,"""","""","""","""","""",video-slider-response,14,194639,0.0-14.0,cwna6yvlm,7161,"[""video/yes_line_8_1cut.mp4""]",-50,yes_1,null,0,video/yes_line_8_1cut.mp4,2022-01-26 04:32:32,47.203.92.56,"Mozilla/5.0 (Windows NT 10.0; Win64; x64) AppleWebKit/537.36 (KHTML, like Gecko) Chrome/94.0.4606.54 Safari/537.36 Edg/93.0.961.38",WebKit,Edge,93.0.961.38,Windows,10.0,9b0944a1c4b7446d8b03129ce44dbcf3
25,1,"""","""","""","""","""",video-slider-response,15,205094,0.0-15.0,cwna6yvlm,10452,"[""video/yes_line_10_1cut.mp4""]",-50,yes_1,null,0,video/yes_line_10_1cut.mp4,2022-01-26 04:32:32,47.203.92.56,"Mozilla/5.0 (Windows NT 10.0; Win64; x64) AppleWebKit/537.36 (KHTML, like Gecko) Chrome/94.0.4606.54 Safari/537.36 Edg/93.0.961.38",WebKit,Edge,93.0.961.38,Windows,10.0,9b0944a1c4b7446d8b03129ce44dbcf3
25,1,"""","""","""","""","""",video-slider-response,16,210674,0.0-16.0,cwna6yvlm,5578,"[""video/no_line_1_1cut.mp4""]",50,no_1,null,0,video/no_line_1_1cut.mp4,2022-01-26 04:32:32,47.203.92.56,"Mozilla/5.0 (Windows NT 10.0; Win64; x64) AppleWebKit/537.36 (KHTML, like Gecko) Chrome/94.0.4606.54 Safari/537.36 Edg/93.0.961.38",WebKit,Edge,93.0.961.38,Windows,10.0,9b0944a1c4b7446d8b03129ce44dbcf3
25,1,"""","""","""","""","""",video-slider-response,17,226784,0.0-17.0,cwna6yvlm,16107,"[""video/maybe_line_new_1_1cut.mp4""]",19,maybe_1,null,0,video/maybe_line_new_1_1cut.mp4,2022-01-26 04:32:32,47.203.92.56,"Mozilla/5.0 (Windows NT 10.0; Win64; x64) AppleWebKit/537.36 (KHTML, like Gecko) Chrome/94.0.4606.54 Safari/537.36 Edg/93.0.961.38",WebKit,Edge,93.0.961.38,Windows,10.0,9b0944a1c4b7446d8b03129ce44dbcf3
25,1,"""","""","""","""","""",video-slider-response,18,234089,0.0-18.0,cwna6yvlm,7303,"[""video/maybe_line_new_5_1cut.mp4""]",-50,maybe_1,null,0,video/maybe_line_new_5_1cut.mp4,2022-01-26 04:32:32,47.203.92.56,"Mozilla/5.0 (Windows NT 10.0; Win64; x64) AppleWebKit/537.36 (KHTML, like Gecko) Chrome/94.0.4606.54 Safari/537.36 Edg/93.0.961.38",WebKit,Edge,93.0.961.38,Windows,10.0,9b0944a1c4b7446d8b03129ce44dbcf3
25,1,"""","""","""","""","""",survey-html-form,19,247686,0.0-19.0,cwna6yvlm,13596,"""","[{""name"":""understand"",""value"":""yes""},{""name"":""problems"",""value"":""no""},{""name"":""age"",""value"":""35""},{""name"":""gender"",""value"":""male""},{""name"":""comments"",""value"":""}]",debrief,"""","""","""",2022-01-26 04:32:32,47.203.92.56,"Mozilla/5.0 (Windows NT 10.0; Win64; x64) AppleWebKit/537.36 (KHTML, like Gecko) Chrome/94.0.4606.54 Safari/537.36 Edg/93.0.961.38",WebKit,Edge,93.0.961.38,Windows,10.0,9b0944a1c4b7446d8b03129ce44dbcf3
25,1,"""","""","""","""","""",html-keyboard-response,20,259650,0.0-20.0,cwna6yvlm,11963,"<div style=""font-size:20px;"">This task is now over. The completion code is: cwna6yvlm Press space after you have the completion code to finish. Thank you for your participation! </div>", ,"""","""","""","""",2022-01-26 04:32:32,47.203.92.56,"Mozilla/5.0 (Windows NT 10.0; Win64; x64) AppleWebKit/537.36 (KHTML, like Gecko) Chrome/94.0.4606.54 Safari/537.36 Edg/93.0.961.38",WebKit,Edge,93.0.961.38,Windows,10.0,9b0944a1c4b7446d8b03129ce44dbcf3
23,1,true,false,[],[],[],preload,0,546,0.0-0.0,glyy5f8pb,"""","""","""","""","""","""","""",2022-01-26 04:30:37,67.158.16.226,"Mozilla/5.0 (Windows NT 10.0; Win64; x64) AppleWebKit/537.36 (KHTML, like Gecko) Chrome/97.0.4692.99 Safari/537.36",WebKit,Chrome,97.0.4692.99,Windows,10.0,9b0944a1c4b7446d8b03129ce44dbcf3
23,1,"""","""","""","""","""",html-keyboard-response,1,4388,0.0-1.0,glyy5f8pb,3839,"<p style=""text-align:center;width:700px;""> Welcome to the experiment! This study takes most people around 15 minutes to complete. Please complete it in one sitting.</p>", ,"""","""","""","""",2022-01-26 04:30:37,67.158.16.226,"Mozilla/5.0 (Windows NT 10.0; Win64; x64) AppleWebKit/537.36 (KHTML, like Gecko) Chrome/97.0.4692.99 Safari/537.36",WebKit,Chrome,97.0.4692.99,Windows,10.0,9b0944a1c4b7446d8b03129ce44dbcf3
23,1,"""","""","""","""","""",html-keyboard-response,2,41017,0.0-2.0,glyy5f8pb,36627,"<p style = ""font-size:16px;"">MIT Computational Cognitive Science Lab</p><h4>Press the 'y' key to consent.</h4><div style = ""background-color:#f2f2f2;""><h3>Informed Consent Form</h3><div style=""text-align:left;width:700px;""><p style = ""font-size:16px;"">In this HIT, you will be asked to read a set of instructions that describe a particular scenario, and you will then be asked to perform a simple task relating to that scenario. There will also be comprehension and attention checks. Participants who do not answer these checks correctly cannot be approved. In order to get credit for this HIT, you must read all the questions fully and answer honestly. You may only complete this HIT once. If you complete this HIT multiple times, you will be rejected.</p><p style = ""font-size:16px;"">This HIT is part of a MIT scientific research project. Your decision to complete this HIT is voluntary. There is no way for us to identify you. The only information we will have, in addition to your responses, is the time at which you completed the survey. The results of the research may be presented at scientific meetings or published in scientific journals. Pressing the ""Y"" key indicates that you are at least 18 years of age, and agree to complete this HIT voluntarily. Press the ""Y"" key to confirm your agreement and continue.</p></div>",y,"""","""","""","""",2022-01-26 04:30:37,67.158.16.226,"Mozilla/5.0 (Windows NT 10.0; Win64; x64) AppleWebKit/537.36 (KHTML, like Gecko) Chrome/97.0.4692.99 Safari/537.36",WebKit,Chrome,97.0.4692.99,Windows,10.0,9b0944a1c4b7446d8b03129ce44dbcf3
23,1,"""","""","""","""","""",survey-text,3,122048,0.0-3.0,glyy5f8pb,81010,"""","{""instructions1"":""The goal is for everyone to collect water from a source and then bring it back to storage buckets quickly.""}",instructions,"""","""","""",2022-01-26 04:30:37,67.158.16.226,"Mozilla/5.0 (Windows NT 10.0; Win64; x64) AppleWebKit/537.36 (KHTML, like Gecko) Chrome/97.0.4692.99 Safari/537.36",WebKit,Chrome,97.0.4692.99,Windows,10.0,9b0944a1c4b7446d8b03129ce44dbcf3
23,1,"""","""","""","""","""",survey-text,4,188039,0.0-4.0,glyy5f8pb,65984,"""","{""instructions2"":""1""}",instructions,"""","""","""",2022-01-26 04:30:37,67.158.16.226,"Mozilla/5.0 (Windows NT 10.0; Win64; x64) AppleWebKit/537.36 (KHTML, like Gecko) Chrome/97.0.4692.99 Safari/537.36",WebKit,Chrome,97.0.4692.99,Windows,10.0,9b0944a1c4b7446d8b03129ce44dbcf3
23,1,"""","""","""","""","""",survey-text,5,295236,0.0-5.0,glyy5f8pb,107195,"""","{""instructions4"":""What would happen if everyone could leave the line and quickly get water for themselves. Also, how much better or worse off everyone would be if everyone stayed in line.""}",instructions,"""","""","""",2022-01-26 04:30:37,67.158.16.226,"Mozilla/5.0 (Windows NT 10.0; Win64; x64) AppleWebKit/537.36 (KHTML, like Gecko) Chrome/97.0.4692.99 Safari/537.36",WebKit,Chrome,97.0.4692.99,Windows,10.0,9b0944a1c4b7446d8b03129ce44dbcf3
23,1,"""","""","""","""","""",video-slider-response,6,343605,0.0-6.0,glyy5f8pb,48366,"[""video/maybe_line_new_1_1cut.mp4""]",17,maybe_1,null,0,video/maybe_line_new_1_1cut.mp4,2022-01-26 04:30:37,67.158.16.226,"Mozilla/5.0 (Windows NT 10.0; Win64; x64) AppleWebKit/537.36 (KHTML, like Gecko) Chrome/97.0.4692.99 Safari/537.36",WebKit,Chrome,97.0.4692.99,Windows,10.0,9b0944a1c4b7446d8b03129ce44dbcf3
23,1,"""","""","""","""","""",video-slider-response,7,371852,0.0-7.0,glyy5f8pb,28244,"[""video/no_line_3_1cut.mp4""]",-28,no_1,null,0,video/no_line_3_1cut.mp4,2022-01-26 04:30:37,67.158.16.226,"Mozilla/5.0 (Windows NT 10.0; Win64; x64) AppleWebKit/537.36 (KHTML, like Gecko) Chrome/97.0.4692.99 Safari/537.36",WebKit,Chrome,97.0.4692.99,Windows,10.0,9b0944a1c4b7446d8b03129ce44dbcf3
23,1,"""","""","""","""","""",video-slider-response,8,392252,0.0-8.0,glyy5f8pb,20397,"[""video/maybe_line_new_3_1cut.mp4""]",-10,maybe_1,null,0,video/maybe_line_new_3_1cut.mp4,2022-01-26 04:30:37,67.158.16.226,"Mozilla/5.0 (Windows NT 10.0; Win64; x64) AppleWebKit/537.36 (KHTML, like Gecko) Chrome/97.0.4692.99 Safari/537.36",WebKit,Chrome,97.0.4692.99,Windows,10.0,9b0944a1c4b7446d8b03129ce44dbcf3
23,1,"""","""","""","""","""",video-slider-response,9,404204,0.0-9.0,glyy5f8pb,11949,"[""video/no_line_1_1cut.mp4""]",27,no_1,null,0,video/no_line_1_1cut.mp4,2022-01-26 04:30:37,67.158.16.226,"Mozilla/5.0 (Windows NT 10.0; Win64; x64) AppleWebKit/537.36 (KHTML, like Gecko) Chrome/97.0.4692.99 Safari/537.36",WebKit,Chrome,97.0.4692.99,Windows,10.0,9b0944a1c4b7446d8b03129ce44dbcf3
23,1,"""","""","""","""","""",video-slider-response,10,424211,0.0-10.0,glyy5f8pb,20006,"[""video/yes_line_7_1cut.mp4""]",-13,yes_1,null,0,video/yes_line_7_1cut.mp4,2022-01-26 04:30:37,67.158.16.226,"Mozilla/5.0 (Windows NT 10.0; Win64; x64) AppleWebKit/537.36 (KHTML, like Gecko) Chrome/97.0.4692.99 Safari/537.36",WebKit,Chrome,97.0.4692.99,Windows,10.0,9b0944a1c4b7446d8b03129ce44dbcf3
23,1,"""","""","""","""","""",video-slider-response,11,440636,0.0-11.0,glyy5f8pb,16421,"[""video/yes_line_8_1cut.mp4""]",-45,yes_1,null,0,video/yes_line_8_1cut.mp4,2022-01-26 04:30:37,67.158.16.226,"Mozilla/5.0 (Windows NT 10.0; Win64; x64) AppleWebKit/537.36 (KHTML, like Gecko) Chrome/97.0.4692.99 Safari/537.36",WebKit,Chrome,97.0.4692.99,Windows,10.0,9b0944a1c4b7446d8b03129ce44dbcf3
23,1,"""","""","""","""","""",video-slider-response,12,451011,0.0-12.0,glyy5f8pb,10373,"[""video/yes_line_9_1cut.mp4""]",19,yes_1,null,0,video/yes_line_9_1cut.mp4,2022-01-26 04:30:37,67.158.16.226,"Mozilla/5.0 (Windows NT 10.0; Win64; x64) AppleWebKit/537.36 (KHTML, like Gecko) Chrome/97.0.4692.99 Safari/537.36",WebKit,Chrome,97.0.4692.99,Windows,10.0,9b0944a1c4b7446d8b03129ce44dbcf3
23,1,"""","""","""","""","""",video-slider-response,13,466012,0.0-13.0,glyy5f8pb,14997,"[""video/maybe_line_new_4_1cut.mp4""]",5,maybe_1,null,0,video/maybe_line_new_4_1cut.mp4,2022-01-26 04:30:37,67.158.16.226,"Mozilla/5.0 (Windows NT 10.0; Win64; x64) AppleWebKit/537.36 (KHTML, like Gecko) Chrome/97.0.4692.99 Safari/537.36",WebKit,Chrome,97.0.4692.99,Windows,10.0,9b0944a1c4b7446d8b03129ce44dbcf3
23,1,"""","""","""","""","""",video-slider-response,14,476859,0.0-14.0,glyy5f8pb,10846,"[""video/maybe_line_new_2_1cut.mp4""]",18,maybe_1,null,0,video/maybe_line_new_2_1cut.mp4,2022-01-26 04:30:37,67.158.16.226,"Mozilla/5.0 (Windows NT 10.0; Win64; x64) AppleWebKit/537.36 (KHTML, like Gecko) Chrome/97.0.4692.99 Safari/537.36",WebKit,Chrome,97.0.4692.99,Windows,10.0,9b0944a1c4b7446d8b03129ce44dbcf3
23,1,"""","""","""","""","""",video-slider-response,15,487979,0.0-15.0,glyy5f8pb,11118,"[""video/yes_line_10_1cut.mp4""]",-50,yes_1,null,0,video/yes_line_10_1cut.mp4,2022-01-26 04:30:37,67.158.16.226,"Mozilla/5.0 (Windows NT 10.0; Win64; x64) AppleWebKit/537.36 (KHTML, like Gecko) Chrome/97.0.4692.99 Safari/537.36",WebKit,Chrome,97.0.4692.99,Windows,10.0,9b0944a1c4b7446d8b03129ce44dbcf3
23,1,"""","""","""","""","""",video-slider-response,16,505283,0.0-16.0,glyy5f8pb,17302,"[""video/maybe_line_new_6_1cut.mp4""]",9,maybe_1,null,0,video/maybe_line_new_6_1cut.mp4,2022-01-26 04:30:37,67.158.16.226,"Mozilla/5.0 (Windows NT 10.0; Win64; x64) AppleWebKit/537.36 (KHTML, like Gecko) Chrome/97.0.4692.99 Safari/537.36",WebKit,Chrome,97.0.4692.99,Windows,10.0,9b0944a1c4b7446d8b03129ce44dbcf3
23,1,"""","""","""","""","""",video-slider-response,17,523411,0.0-17.0,glyy5f8pb,18125,"[""video/no_line_2_1cut.mp4""]",50,no_1,null,0,video/no_line_2_1cut.mp4,2022-01-26 04:30:37,67.158.16.226,"Mozilla/5.0 (Windows NT 10.0; Win64; x64) AppleWebKit/537.36 (KHTML, like Gecko) Chrome/97.0.4692.99 Safari/537.36",WebKit,Chrome,97.0.4692.99,Windows,10.0,9b0944a1c4b7446d8b03129ce44dbcf3
23,1,"""","""","""","""","""",video-slider-response,18,532498,0.0-18.0,glyy5f8pb,9085,"[""video/maybe_line_new_5_1cut.mp4""]",-48,maybe_1,null,0,video/maybe_line_new_5_1cut.mp4,2022-01-26 04:30:37,67.158.16.226,"Mozilla/5.0 (Windows NT 10.0; Win64; x64) AppleWebKit/537.36 (KHTML, like Gecko) Chrome/97.0.4692.99 Safari/537.36",WebKit,Chrome,97.0.4692.99,Windows,10.0,9b0944a1c4b7446d8b03129ce44dbcf3
